{
    "resourceType": "DiagnosticReport",
    "id": "dr-f740190d92224",
    "meta": {
        "profile": [
            "http://hl7.org/fhir/uv/genomics-reporting/StructureDefinition/genomics-report"
        ]
    },
    "contained": [
        {
            "resourceType": "Observation",
            "id": "rs-36132550564c4",
            "meta": {
                "profile": [
                    "http://hl7.org/fhir/uv/genomics-reporting/StructureDefinition/region-studied"
                ]
            },
            "status": "final",
            "category": [
                {
                    "coding": [
                        {
                            "system": "http://terminology.hl7.org/CodeSystem/observation-category",
                            "code": "laboratory"
                        }
                    ]
                }
            ],
            "code": {
                "coding": [
                    {
                        "system": "http://loinc.org",
                        "code": "53041-0",
                        "display": "DNA region of interest panel"
                    }
                ]
            },
            "subject": {
                "reference": "Patient/NA12003"
            },
            "component": [
                {
                    "code": {
                        "coding": [
                            {
                                "system": "http://loinc.org",
                                "code": "92822-6",
                                "display": "Genomic coord system"
                            }
                        ]
                    },
                    "valueCodeableConcept": {
                        "coding": [
                            {
                                "system": "http://loinc.org",
                                "code": "LA30102-0",
                                "display": "1-based character counting"
                            }
                        ]
                    }
                },
                {
                    "code": {
                        "coding": [
                            {
                                "system": "http://loinc.org",
                                "code": "48013-7",
                                "display": "Genomic reference sequence ID"
                            }
                        ]
                    },
                    "valueCodeableConcept": {
                        "coding": [
                            {
                                "system": "http://www.ncbi.nlm.nih.gov/nuccore",
                                "code": "NC_000022.10"
                            }
                        ]
                    }
                }
            ]
        },
        {
            "resourceType": "Observation",
            "id": "dv-efd08d04968e4",
            "meta": {
                "profile": [
                    "http://hl7.org/fhir/uv/genomics-reporting/StructureDefinition/variant"
                ]
            },
            "status": "final",
            "category": [
                {
                    "coding": [
                        {
                            "system": "http://terminology.hl7.org/CodeSystem/observation-category",
                            "code": "laboratory"
                        }
                    ]
                }
            ],
            "code": {
                "coding": [
                    {
                        "system": "http://loinc.org",
                        "code": "69548-6",
                        "display": "Genetic variant assessment"
                    }
                ]
            },
            "subject": {
                "reference": "Patient/NA12003"
            },
            "valueCodeableConcept": {
                "coding": [
                    {
                        "system": "http://loinc.org",
                        "code": "LA9633-4",
                        "display": "present"
                    }
                ]
            },
            "component": [
                {
                    "code": {
                        "coding": [
                            {
                                "system": "http://loinc.org",
                                "code": "62374-4",
                                "display": "Human reference sequence assembly version"
                            }
                        ]
                    },
                    "valueCodeableConcept": {
                        "coding": [
                            {
                                "system": "http://loinc.org",
                                "code": "LA14029-5",
                                "display": "GRCh37"
                            }
                        ]
                    }
                },
                {
                    "code": {
                        "coding": [
                            {
                                "system": "http://loinc.org",
                                "code": "48013-7",
                                "display": "Genomic reference sequence ID"
                            }
                        ]
                    },
                    "valueCodeableConcept": {
                        "coding": [
                            {
                                "system": "http://www.ncbi.nlm.nih.gov/nuccore",
                                "code": "NC_000022.10"
                            }
                        ]
                    }
                },
                {
                    "code": {
                        "coding": [
                            {
                                "system": "http://loinc.org",
                                "code": "53034-5",
                                "display": "Allelic state"
                            }
                        ]
                    },
                    "valueCodeableConcept": {
                        "coding": [
                            {
                                "system": "http://loinc.org",
                                "code": "LA6706-1",
                                "display": "heterozygous"
                            }
                        ]
                    }
                },
                {
                    "code": {
                        "coding": [
                            {
                                "system": "http://loinc.org",
                                "code": "69547-8",
                                "display": "Genomic Ref allele [ID]"
                            }
                        ]
                    },
                    "valueString": "T"
                },
                {
                    "code": {
                        "coding": [
                            {
                                "system": "http://loinc.org",
                                "code": "69551-0",
                                "display": "Genomic Alt allele [ID]"
                            }
                        ]
                    },
                    "valueString": "C"
                },
                {
                    "code": {
                        "coding": [
                            {
                                "system": "http://loinc.org",
                                "code": "92822-6",
                                "display": "Genomic coord system"
                            }
                        ]
                    },
                    "valueCodeableConcept": {
                        "coding": [
                            {
                                "system": "http://loinc.org",
                                "code": "LA30102-0",
                                "display": "1-based character counting"
                            }
                        ]
                    }
                },
                {
                    "code": {
                        "coding": [
                            {
                                "system": "http://hl7.org/fhir/uv/genomics-reporting/CodeSystem/tbd-codes",
                                "code": "exact-start-end",
                                "display": "Variant exact start and end"
                            }
                        ]
                    },
                    "valueRange": {
                        "low": {
                            "value": 42524696
                        }
                    }
                }
            ]
        },
        {
            "resourceType": "Observation",
            "id": "dv-d46807d6952b4",
            "meta": {
                "profile": [
                    "http://hl7.org/fhir/uv/genomics-reporting/StructureDefinition/variant"
                ]
            },
            "status": "final",
            "category": [
                {
                    "coding": [
                        {
                            "system": "http://terminology.hl7.org/CodeSystem/observation-category",
                            "code": "laboratory"
                        }
                    ]
                }
            ],
            "code": {
                "coding": [
                    {
                        "system": "http://loinc.org",
                        "code": "69548-6",
                        "display": "Genetic variant assessment"
                    }
                ]
            },
            "subject": {
                "reference": "Patient/NA12003"
            },
            "valueCodeableConcept": {
                "coding": [
                    {
                        "system": "http://loinc.org",
                        "code": "LA9633-4",
                        "display": "present"
                    }
                ]
            },
            "component": [
                {
                    "code": {
                        "coding": [
                            {
                                "system": "http://loinc.org",
                                "code": "62374-4",
                                "display": "Human reference sequence assembly version"
                            }
                        ]
                    },
                    "valueCodeableConcept": {
                        "coding": [
                            {
                                "system": "http://loinc.org",
                                "code": "LA14029-5",
                                "display": "GRCh37"
                            }
                        ]
                    }
                },
                {
                    "code": {
                        "coding": [
                            {
                                "system": "http://loinc.org",
                                "code": "48013-7",
                                "display": "Genomic reference sequence ID"
                            }
                        ]
                    },
                    "valueCodeableConcept": {
                        "coding": [
                            {
                                "system": "http://www.ncbi.nlm.nih.gov/nuccore",
                                "code": "NC_000022.10"
                            }
                        ]
                    }
                },
                {
                    "code": {
                        "coding": [
                            {
                                "system": "http://loinc.org",
                                "code": "53034-5",
                                "display": "Allelic state"
                            }
                        ]
                    },
                    "valueCodeableConcept": {
                        "coding": [
                            {
                                "system": "http://loinc.org",
                                "code": "LA6706-1",
                                "display": "heterozygous"
                            }
                        ]
                    }
                },
                {
                    "code": {
                        "coding": [
                            {
                                "system": "http://loinc.org",
                                "code": "69547-8",
                                "display": "Genomic Ref allele [ID]"
                            }
                        ]
                    },
                    "valueString": "C"
                },
                {
                    "code": {
                        "coding": [
                            {
                                "system": "http://loinc.org",
                                "code": "69551-0",
                                "display": "Genomic Alt allele [ID]"
                            }
                        ]
                    },
                    "valueString": "T"
                },
                {
                    "code": {
                        "coding": [
                            {
                                "system": "http://loinc.org",
                                "code": "92822-6",
                                "display": "Genomic coord system"
                            }
                        ]
                    },
                    "valueCodeableConcept": {
                        "coding": [
                            {
                                "system": "http://loinc.org",
                                "code": "LA30102-0",
                                "display": "1-based character counting"
                            }
                        ]
                    }
                },
                {
                    "code": {
                        "coding": [
                            {
                                "system": "http://hl7.org/fhir/uv/genomics-reporting/CodeSystem/tbd-codes",
                                "code": "exact-start-end",
                                "display": "Variant exact start and end"
                            }
                        ]
                    },
                    "valueRange": {
                        "low": {
                            "value": 42524947
                        }
                    }
                }
            ]
        },
        {
            "resourceType": "Observation",
            "id": "dv-ccb80697b0fe4",
            "meta": {
                "profile": [
                    "http://hl7.org/fhir/uv/genomics-reporting/StructureDefinition/variant"
                ]
            },
            "status": "final",
            "category": [
                {
                    "coding": [
                        {
                            "system": "http://terminology.hl7.org/CodeSystem/observation-category",
                            "code": "laboratory"
                        }
                    ]
                }
            ],
            "code": {
                "coding": [
                    {
                        "system": "http://loinc.org",
                        "code": "69548-6",
                        "display": "Genetic variant assessment"
                    }
                ]
            },
            "subject": {
                "reference": "Patient/NA12003"
            },
            "valueCodeableConcept": {
                "coding": [
                    {
                        "system": "http://loinc.org",
                        "code": "LA9633-4",
                        "display": "present"
                    }
                ]
            },
            "component": [
                {
                    "code": {
                        "coding": [
                            {
                                "system": "http://loinc.org",
                                "code": "62374-4",
                                "display": "Human reference sequence assembly version"
                            }
                        ]
                    },
                    "valueCodeableConcept": {
                        "coding": [
                            {
                                "system": "http://loinc.org",
                                "code": "LA14029-5",
                                "display": "GRCh37"
                            }
                        ]
                    }
                },
                {
                    "code": {
                        "coding": [
                            {
                                "system": "http://loinc.org",
                                "code": "48013-7",
                                "display": "Genomic reference sequence ID"
                            }
                        ]
                    },
                    "valueCodeableConcept": {
                        "coding": [
                            {
                                "system": "http://www.ncbi.nlm.nih.gov/nuccore",
                                "code": "NC_000022.10"
                            }
                        ]
                    }
                },
                {
                    "code": {
                        "coding": [
                            {
                                "system": "http://loinc.org",
                                "code": "53034-5",
                                "display": "Allelic state"
                            }
                        ]
                    },
                    "valueCodeableConcept": {
                        "coding": [
                            {
                                "system": "http://loinc.org",
                                "code": "LA6706-1",
                                "display": "heterozygous"
                            }
                        ]
                    }
                },
                {
                    "code": {
                        "coding": [
                            {
                                "system": "http://loinc.org",
                                "code": "69547-8",
                                "display": "Genomic Ref allele [ID]"
                            }
                        ]
                    },
                    "valueString": "GG"
                },
                {
                    "code": {
                        "coding": [
                            {
                                "system": "http://loinc.org",
                                "code": "69551-0",
                                "display": "Genomic Alt allele [ID]"
                            }
                        ]
                    },
                    "valueString": "TC"
                },
                {
                    "code": {
                        "coding": [
                            {
                                "system": "http://loinc.org",
                                "code": "92822-6",
                                "display": "Genomic coord system"
                            }
                        ]
                    },
                    "valueCodeableConcept": {
                        "coding": [
                            {
                                "system": "http://loinc.org",
                                "code": "LA30102-0",
                                "display": "1-based character counting"
                            }
                        ]
                    }
                },
                {
                    "code": {
                        "coding": [
                            {
                                "system": "http://hl7.org/fhir/uv/genomics-reporting/CodeSystem/tbd-codes",
                                "code": "exact-start-end",
                                "display": "Variant exact start and end"
                            }
                        ]
                    },
                    "valueRange": {
                        "low": {
                            "value": 42526561
                        }
                    }
                }
            ]
        },
        {
            "resourceType": "Observation",
            "id": "dv-3a64994e41734",
            "meta": {
                "profile": [
                    "http://hl7.org/fhir/uv/genomics-reporting/StructureDefinition/variant"
                ]
            },
            "status": "final",
            "category": [
                {
                    "coding": [
                        {
                            "system": "http://terminology.hl7.org/CodeSystem/observation-category",
                            "code": "laboratory"
                        }
                    ]
                }
            ],
            "code": {
                "coding": [
                    {
                        "system": "http://loinc.org",
                        "code": "69548-6",
                        "display": "Genetic variant assessment"
                    }
                ]
            },
            "subject": {
                "reference": "Patient/NA12003"
            },
            "valueCodeableConcept": {
                "coding": [
                    {
                        "system": "http://loinc.org",
                        "code": "LA9633-4",
                        "display": "present"
                    }
                ]
            },
            "component": [
                {
                    "code": {
                        "coding": [
                            {
                                "system": "http://loinc.org",
                                "code": "62374-4",
                                "display": "Human reference sequence assembly version"
                            }
                        ]
                    },
                    "valueCodeableConcept": {
                        "coding": [
                            {
                                "system": "http://loinc.org",
                                "code": "LA14029-5",
                                "display": "GRCh37"
                            }
                        ]
                    }
                },
                {
                    "code": {
                        "coding": [
                            {
                                "system": "http://loinc.org",
                                "code": "48013-7",
                                "display": "Genomic reference sequence ID"
                            }
                        ]
                    },
                    "valueCodeableConcept": {
                        "coding": [
                            {
                                "system": "http://www.ncbi.nlm.nih.gov/nuccore",
                                "code": "NC_000022.10"
                            }
                        ]
                    }
                },
                {
                    "code": {
                        "coding": [
                            {
                                "system": "http://loinc.org",
                                "code": "53034-5",
                                "display": "Allelic state"
                            }
                        ]
                    },
                    "valueCodeableConcept": {
                        "coding": [
                            {
                                "system": "http://loinc.org",
                                "code": "LA6706-1",
                                "display": "heterozygous"
                            }
                        ]
                    }
                },
                {
                    "code": {
                        "coding": [
                            {
                                "system": "http://loinc.org",
                                "code": "69547-8",
                                "display": "Genomic Ref allele [ID]"
                            }
                        ]
                    },
                    "valueString": "CAT"
                },
                {
                    "code": {
                        "coding": [
                            {
                                "system": "http://loinc.org",
                                "code": "69551-0",
                                "display": "Genomic Alt allele [ID]"
                            }
                        ]
                    },
                    "valueString": "GAG"
                },
                {
                    "code": {
                        "coding": [
                            {
                                "system": "http://loinc.org",
                                "code": "92822-6",
                                "display": "Genomic coord system"
                            }
                        ]
                    },
                    "valueCodeableConcept": {
                        "coding": [
                            {
                                "system": "http://loinc.org",
                                "code": "LA30102-0",
                                "display": "1-based character counting"
                            }
                        ]
                    }
                },
                {
                    "code": {
                        "coding": [
                            {
                                "system": "http://hl7.org/fhir/uv/genomics-reporting/CodeSystem/tbd-codes",
                                "code": "exact-start-end",
                                "display": "Variant exact start and end"
                            }
                        ]
                    },
                    "valueRange": {
                        "low": {
                            "value": 42526571
                        }
                    }
                }
            ]
        },
        {
            "resourceType": "Observation",
            "id": "dv-94799c354c8b4",
            "meta": {
                "profile": [
                    "http://hl7.org/fhir/uv/genomics-reporting/StructureDefinition/variant"
                ]
            },
            "status": "final",
            "category": [
                {
                    "coding": [
                        {
                            "system": "http://terminology.hl7.org/CodeSystem/observation-category",
                            "code": "laboratory"
                        }
                    ]
                }
            ],
            "code": {
                "coding": [
                    {
                        "system": "http://loinc.org",
                        "code": "69548-6",
                        "display": "Genetic variant assessment"
                    }
                ]
            },
            "subject": {
                "reference": "Patient/NA12003"
            },
            "valueCodeableConcept": {
                "coding": [
                    {
                        "system": "http://loinc.org",
                        "code": "LA9633-4",
                        "display": "present"
                    }
                ]
            },
            "component": [
                {
                    "code": {
                        "coding": [
                            {
                                "system": "http://loinc.org",
                                "code": "62374-4",
                                "display": "Human reference sequence assembly version"
                            }
                        ]
                    },
                    "valueCodeableConcept": {
                        "coding": [
                            {
                                "system": "http://loinc.org",
                                "code": "LA14029-5",
                                "display": "GRCh37"
                            }
                        ]
                    }
                },
                {
                    "code": {
                        "coding": [
                            {
                                "system": "http://loinc.org",
                                "code": "48013-7",
                                "display": "Genomic reference sequence ID"
                            }
                        ]
                    },
                    "valueCodeableConcept": {
                        "coding": [
                            {
                                "system": "http://www.ncbi.nlm.nih.gov/nuccore",
                                "code": "NC_000022.10"
                            }
                        ]
                    }
                },
                {
                    "code": {
                        "coding": [
                            {
                                "system": "http://loinc.org",
                                "code": "53034-5",
                                "display": "Allelic state"
                            }
                        ]
                    },
                    "valueCodeableConcept": {
                        "coding": [
                            {
                                "system": "http://loinc.org",
                                "code": "LA6706-1",
                                "display": "heterozygous"
                            }
                        ]
                    }
                },
                {
                    "code": {
                        "coding": [
                            {
                                "system": "http://loinc.org",
                                "code": "69547-8",
                                "display": "Genomic Ref allele [ID]"
                            }
                        ]
                    },
                    "valueString": "G"
                },
                {
                    "code": {
                        "coding": [
                            {
                                "system": "http://loinc.org",
                                "code": "69551-0",
                                "display": "Genomic Alt allele [ID]"
                            }
                        ]
                    },
                    "valueString": "A"
                },
                {
                    "code": {
                        "coding": [
                            {
                                "system": "http://loinc.org",
                                "code": "92822-6",
                                "display": "Genomic coord system"
                            }
                        ]
                    },
                    "valueCodeableConcept": {
                        "coding": [
                            {
                                "system": "http://loinc.org",
                                "code": "LA30102-0",
                                "display": "1-based character counting"
                            }
                        ]
                    }
                },
                {
                    "code": {
                        "coding": [
                            {
                                "system": "http://hl7.org/fhir/uv/genomics-reporting/CodeSystem/tbd-codes",
                                "code": "exact-start-end",
                                "display": "Variant exact start and end"
                            }
                        ]
                    },
                    "valueRange": {
                        "low": {
                            "value": 42526694
                        }
                    }
                }
            ]
        },
        {
            "resourceType": "Observation",
            "id": "sid-4e330ea1772e4",
            "meta": {
                "profile": [
                    "http://hl7.org/fhir/uv/genomics-reporting/StructureDefinition/sequence-phase-relationship"
                ]
            },
            "status": "final",
            "category": [
                {
                    "coding": [
                        {
                            "system": "http://terminology.hl7.org/CodeSystem/observation-category",
                            "code": "laboratory"
                        }
                    ]
                }
            ],
            "code": {
                "coding": [
                    {
                        "system": "http://loinc.org",
                        "code": "82120-7",
                        "display": "Allelic phase"
                    }
                ]
            },
            "subject": {
                "reference": "Patient/NA12003"
            },
            "valueCodeableConcept": {
                "coding": [
                    {
                        "system": "http://hl7.org/fhir/uv/genomics-reporting/CodeSystem/seq-phase-relationship",
                        "code": "Cis",
                        "display": "Cis"
                    }
                ]
            },
            "derivedFrom": [
                {
                    "reference": "#dv-ccb80697b0fe4"
                },
                {
                    "reference": "#dv-3a64994e41734"
                }
            ]
        }
    ],
    "status": "final",
    "code": {
        "coding": [
            {
                "system": "http://loinc.org",
                "code": "81247-9",
                "display": "Master HL7 genetic variant reporting panel"
            }
        ]
    },
    "subject": {
        "reference": "Patient/NA12003"
    },
    "issued": "2020-04-27T13:10:33+00:00",
    "result": [
        {
            "reference": "#rs-36132550564c4"
        },
        {
            "reference": "#dv-efd08d04968e4"
        },
        {
            "reference": "#dv-d46807d6952b4"
        },
        {
            "reference": "#dv-ccb80697b0fe4"
        },
        {
            "reference": "#dv-3a64994e41734"
        },
        {
            "reference": "#dv-94799c354c8b4"
        },
        {
            "reference": "#sid-4e330ea1772e4"
        }
    ]
}