{
    "resourceType": "DiagnosticReport",
    "id": "dr-3ddb645e2ac14",
    "meta": {
        "profile": [
            "http://hl7.org/fhir/uv/genomics-reporting/StructureDefinition/genomics-report"
        ]
    },
    "contained": [
        {
            "resourceType": "Observation",
            "id": "rs-ab7c3b8704c74",
            "meta": {
                "profile": [
                    "http://hl7.org/fhir/uv/genomics-reporting/StructureDefinition/region-studied"
                ]
            },
            "status": "final",
            "category": [
                {
                    "coding": [
                        {
                            "system": "http://terminology.hl7.org/CodeSystem/observation-category",
                            "code": "laboratory"
                        }
                    ]
                }
            ],
            "code": {
                "coding": [
                    {
                        "system": "http://loinc.org",
                        "code": "53041-0",
                        "display": "DNA region of interest panel"
                    }
                ]
            },
            "subject": {
                "reference": "Patient/NA19138"
            },
            "component": [
                {
                    "code": {
                        "coding": [
                            {
                                "system": "http://loinc.org",
                                "code": "92822-6",
                                "display": "Genomic coord system"
                            }
                        ]
                    },
                    "valueCodeableConcept": {
                        "coding": [
                            {
                                "system": "http://loinc.org",
                                "code": "LA30102-0",
                                "display": "1-based character counting"
                            }
                        ]
                    }
                },
                {
                    "code": {
                        "coding": [
                            {
                                "system": "http://loinc.org",
                                "code": "48013-7",
                                "display": "Genomic reference sequence ID"
                            }
                        ]
                    },
                    "valueCodeableConcept": {
                        "coding": [
                            {
                                "system": "http://www.ncbi.nlm.nih.gov/nuccore",
                                "code": "NC_000006.11"
                            }
                        ]
                    }
                }
            ]
        },
        {
            "resourceType": "Observation",
            "id": "dv-65f8db7990244",
            "meta": {
                "profile": [
                    "http://hl7.org/fhir/uv/genomics-reporting/StructureDefinition/variant"
                ]
            },
            "status": "final",
            "category": [
                {
                    "coding": [
                        {
                            "system": "http://terminology.hl7.org/CodeSystem/observation-category",
                            "code": "laboratory"
                        }
                    ]
                }
            ],
            "code": {
                "coding": [
                    {
                        "system": "http://loinc.org",
                        "code": "69548-6",
                        "display": "Genetic variant assessment"
                    }
                ]
            },
            "subject": {
                "reference": "Patient/NA19138"
            },
            "valueCodeableConcept": {
                "coding": [
                    {
                        "system": "http://loinc.org",
                        "code": "LA9633-4",
                        "display": "present"
                    }
                ]
            },
            "component": [
                {
                    "code": {
                        "coding": [
                            {
                                "system": "http://loinc.org",
                                "code": "62374-4",
                                "display": "Human reference sequence assembly version"
                            }
                        ]
                    },
                    "valueCodeableConcept": {
                        "coding": [
                            {
                                "system": "http://loinc.org",
                                "code": "LA14029-5",
                                "display": "GRCh37"
                            }
                        ]
                    }
                },
                {
                    "code": {
                        "coding": [
                            {
                                "system": "http://loinc.org",
                                "code": "48013-7",
                                "display": "Genomic reference sequence ID"
                            }
                        ]
                    },
                    "valueCodeableConcept": {
                        "coding": [
                            {
                                "system": "http://www.ncbi.nlm.nih.gov/nuccore",
                                "code": "NC_000006.11"
                            }
                        ]
                    }
                },
                {
                    "code": {
                        "coding": [
                            {
                                "system": "http://loinc.org",
                                "code": "53034-5",
                                "display": "Allelic state"
                            }
                        ]
                    },
                    "valueCodeableConcept": {
                        "coding": [
                            {
                                "system": "http://loinc.org",
                                "code": "LA6706-1",
                                "display": "heterozygous"
                            }
                        ]
                    }
                },
                {
                    "code": {
                        "coding": [
                            {
                                "system": "http://loinc.org",
                                "code": "69547-8",
                                "display": "Genomic Ref allele [ID]"
                            }
                        ]
                    },
                    "valueString": "C"
                },
                {
                    "code": {
                        "coding": [
                            {
                                "system": "http://loinc.org",
                                "code": "69551-0",
                                "display": "Genomic Alt allele [ID]"
                            }
                        ]
                    },
                    "valueString": "T"
                },
                {
                    "code": {
                        "coding": [
                            {
                                "system": "http://loinc.org",
                                "code": "92822-6",
                                "display": "Genomic coord system"
                            }
                        ]
                    },
                    "valueCodeableConcept": {
                        "coding": [
                            {
                                "system": "http://loinc.org",
                                "code": "LA30102-0",
                                "display": "1-based character counting"
                            }
                        ]
                    }
                },
                {
                    "code": {
                        "coding": [
                            {
                                "system": "http://hl7.org/fhir/uv/genomics-reporting/CodeSystem/tbd-codes",
                                "code": "exact-start-end",
                                "display": "Variant exact start and end"
                            }
                        ]
                    },
                    "valueRange": {
                        "low": {
                            "value": 18132822
                        }
                    }
                }
            ]
        },
        {
            "resourceType": "Observation",
            "id": "dv-53b5f71ae72f4",
            "meta": {
                "profile": [
                    "http://hl7.org/fhir/uv/genomics-reporting/StructureDefinition/variant"
                ]
            },
            "status": "final",
            "category": [
                {
                    "coding": [
                        {
                            "system": "http://terminology.hl7.org/CodeSystem/observation-category",
                            "code": "laboratory"
                        }
                    ]
                }
            ],
            "code": {
                "coding": [
                    {
                        "system": "http://loinc.org",
                        "code": "69548-6",
                        "display": "Genetic variant assessment"
                    }
                ]
            },
            "subject": {
                "reference": "Patient/NA19138"
            },
            "valueCodeableConcept": {
                "coding": [
                    {
                        "system": "http://loinc.org",
                        "code": "LA9633-4",
                        "display": "present"
                    }
                ]
            },
            "component": [
                {
                    "code": {
                        "coding": [
                            {
                                "system": "http://loinc.org",
                                "code": "62374-4",
                                "display": "Human reference sequence assembly version"
                            }
                        ]
                    },
                    "valueCodeableConcept": {
                        "coding": [
                            {
                                "system": "http://loinc.org",
                                "code": "LA14029-5",
                                "display": "GRCh37"
                            }
                        ]
                    }
                },
                {
                    "code": {
                        "coding": [
                            {
                                "system": "http://loinc.org",
                                "code": "48013-7",
                                "display": "Genomic reference sequence ID"
                            }
                        ]
                    },
                    "valueCodeableConcept": {
                        "coding": [
                            {
                                "system": "http://www.ncbi.nlm.nih.gov/nuccore",
                                "code": "NC_000006.11"
                            }
                        ]
                    }
                },
                {
                    "code": {
                        "coding": [
                            {
                                "system": "http://loinc.org",
                                "code": "53034-5",
                                "display": "Allelic state"
                            }
                        ]
                    },
                    "valueCodeableConcept": {
                        "coding": [
                            {
                                "system": "http://loinc.org",
                                "code": "LA6706-1",
                                "display": "heterozygous"
                            }
                        ]
                    }
                },
                {
                    "code": {
                        "coding": [
                            {
                                "system": "http://loinc.org",
                                "code": "69547-8",
                                "display": "Genomic Ref allele [ID]"
                            }
                        ]
                    },
                    "valueString": "G"
                },
                {
                    "code": {
                        "coding": [
                            {
                                "system": "http://loinc.org",
                                "code": "69551-0",
                                "display": "Genomic Alt allele [ID]"
                            }
                        ]
                    },
                    "valueString": "A"
                },
                {
                    "code": {
                        "coding": [
                            {
                                "system": "http://loinc.org",
                                "code": "92822-6",
                                "display": "Genomic coord system"
                            }
                        ]
                    },
                    "valueCodeableConcept": {
                        "coding": [
                            {
                                "system": "http://loinc.org",
                                "code": "LA30102-0",
                                "display": "1-based character counting"
                            }
                        ]
                    }
                },
                {
                    "code": {
                        "coding": [
                            {
                                "system": "http://hl7.org/fhir/uv/genomics-reporting/CodeSystem/tbd-codes",
                                "code": "exact-start-end",
                                "display": "Variant exact start and end"
                            }
                        ]
                    },
                    "valueRange": {
                        "low": {
                            "value": 18133546
                        }
                    }
                }
            ]
        },
        {
            "resourceType": "Observation",
            "id": "dv-415cdc1dbdce4",
            "meta": {
                "profile": [
                    "http://hl7.org/fhir/uv/genomics-reporting/StructureDefinition/variant"
                ]
            },
            "status": "final",
            "category": [
                {
                    "coding": [
                        {
                            "system": "http://terminology.hl7.org/CodeSystem/observation-category",
                            "code": "laboratory"
                        }
                    ]
                }
            ],
            "code": {
                "coding": [
                    {
                        "system": "http://loinc.org",
                        "code": "69548-6",
                        "display": "Genetic variant assessment"
                    }
                ]
            },
            "subject": {
                "reference": "Patient/NA19138"
            },
            "valueCodeableConcept": {
                "coding": [
                    {
                        "system": "http://loinc.org",
                        "code": "LA9633-4",
                        "display": "present"
                    }
                ]
            },
            "component": [
                {
                    "code": {
                        "coding": [
                            {
                                "system": "http://loinc.org",
                                "code": "62374-4",
                                "display": "Human reference sequence assembly version"
                            }
                        ]
                    },
                    "valueCodeableConcept": {
                        "coding": [
                            {
                                "system": "http://loinc.org",
                                "code": "LA14029-5",
                                "display": "GRCh37"
                            }
                        ]
                    }
                },
                {
                    "code": {
                        "coding": [
                            {
                                "system": "http://loinc.org",
                                "code": "48013-7",
                                "display": "Genomic reference sequence ID"
                            }
                        ]
                    },
                    "valueCodeableConcept": {
                        "coding": [
                            {
                                "system": "http://www.ncbi.nlm.nih.gov/nuccore",
                                "code": "NC_000006.11"
                            }
                        ]
                    }
                },
                {
                    "code": {
                        "coding": [
                            {
                                "system": "http://loinc.org",
                                "code": "53034-5",
                                "display": "Allelic state"
                            }
                        ]
                    },
                    "valueCodeableConcept": {
                        "coding": [
                            {
                                "system": "http://loinc.org",
                                "code": "LA6706-1",
                                "display": "heterozygous"
                            }
                        ]
                    }
                },
                {
                    "code": {
                        "coding": [
                            {
                                "system": "http://loinc.org",
                                "code": "69547-8",
                                "display": "Genomic Ref allele [ID]"
                            }
                        ]
                    },
                    "valueString": "G"
                },
                {
                    "code": {
                        "coding": [
                            {
                                "system": "http://loinc.org",
                                "code": "69551-0",
                                "display": "Genomic Alt allele [ID]"
                            }
                        ]
                    },
                    "valueString": "GA"
                },
                {
                    "code": {
                        "coding": [
                            {
                                "system": "http://loinc.org",
                                "code": "92822-6",
                                "display": "Genomic coord system"
                            }
                        ]
                    },
                    "valueCodeableConcept": {
                        "coding": [
                            {
                                "system": "http://loinc.org",
                                "code": "LA30102-0",
                                "display": "1-based character counting"
                            }
                        ]
                    }
                },
                {
                    "code": {
                        "coding": [
                            {
                                "system": "http://hl7.org/fhir/uv/genomics-reporting/CodeSystem/tbd-codes",
                                "code": "exact-start-end",
                                "display": "Variant exact start and end"
                            }
                        ]
                    },
                    "valueRange": {
                        "low": {
                            "value": 18134008
                        }
                    }
                }
            ]
        },
        {
            "resourceType": "Observation",
            "id": "dv-7ebb621c94144",
            "meta": {
                "profile": [
                    "http://hl7.org/fhir/uv/genomics-reporting/StructureDefinition/variant"
                ]
            },
            "status": "final",
            "category": [
                {
                    "coding": [
                        {
                            "system": "http://terminology.hl7.org/CodeSystem/observation-category",
                            "code": "laboratory"
                        }
                    ]
                }
            ],
            "code": {
                "coding": [
                    {
                        "system": "http://loinc.org",
                        "code": "69548-6",
                        "display": "Genetic variant assessment"
                    }
                ]
            },
            "subject": {
                "reference": "Patient/NA19138"
            },
            "valueCodeableConcept": {
                "coding": [
                    {
                        "system": "http://loinc.org",
                        "code": "LA9633-4",
                        "display": "present"
                    }
                ]
            },
            "component": [
                {
                    "code": {
                        "coding": [
                            {
                                "system": "http://loinc.org",
                                "code": "62374-4",
                                "display": "Human reference sequence assembly version"
                            }
                        ]
                    },
                    "valueCodeableConcept": {
                        "coding": [
                            {
                                "system": "http://loinc.org",
                                "code": "LA14029-5",
                                "display": "GRCh37"
                            }
                        ]
                    }
                },
                {
                    "code": {
                        "coding": [
                            {
                                "system": "http://loinc.org",
                                "code": "48013-7",
                                "display": "Genomic reference sequence ID"
                            }
                        ]
                    },
                    "valueCodeableConcept": {
                        "coding": [
                            {
                                "system": "http://www.ncbi.nlm.nih.gov/nuccore",
                                "code": "NC_000006.11"
                            }
                        ]
                    }
                },
                {
                    "code": {
                        "coding": [
                            {
                                "system": "http://loinc.org",
                                "code": "53034-5",
                                "display": "Allelic state"
                            }
                        ]
                    },
                    "valueCodeableConcept": {
                        "coding": [
                            {
                                "system": "http://loinc.org",
                                "code": "LA6706-1",
                                "display": "heterozygous"
                            }
                        ]
                    }
                },
                {
                    "code": {
                        "coding": [
                            {
                                "system": "http://loinc.org",
                                "code": "69547-8",
                                "display": "Genomic Ref allele [ID]"
                            }
                        ]
                    },
                    "valueString": "T"
                },
                {
                    "code": {
                        "coding": [
                            {
                                "system": "http://loinc.org",
                                "code": "69551-0",
                                "display": "Genomic Alt allele [ID]"
                            }
                        ]
                    },
                    "valueString": "C"
                },
                {
                    "code": {
                        "coding": [
                            {
                                "system": "http://loinc.org",
                                "code": "92822-6",
                                "display": "Genomic coord system"
                            }
                        ]
                    },
                    "valueCodeableConcept": {
                        "coding": [
                            {
                                "system": "http://loinc.org",
                                "code": "LA30102-0",
                                "display": "1-based character counting"
                            }
                        ]
                    }
                },
                {
                    "code": {
                        "coding": [
                            {
                                "system": "http://hl7.org/fhir/uv/genomics-reporting/CodeSystem/tbd-codes",
                                "code": "exact-start-end",
                                "display": "Variant exact start and end"
                            }
                        ]
                    },
                    "valueRange": {
                        "low": {
                            "value": 18135178
                        }
                    }
                }
            ]
        },
        {
            "resourceType": "Observation",
            "id": "dv-a5a7d46757e64",
            "meta": {
                "profile": [
                    "http://hl7.org/fhir/uv/genomics-reporting/StructureDefinition/variant"
                ]
            },
            "status": "final",
            "category": [
                {
                    "coding": [
                        {
                            "system": "http://terminology.hl7.org/CodeSystem/observation-category",
                            "code": "laboratory"
                        }
                    ]
                }
            ],
            "code": {
                "coding": [
                    {
                        "system": "http://loinc.org",
                        "code": "69548-6",
                        "display": "Genetic variant assessment"
                    }
                ]
            },
            "subject": {
                "reference": "Patient/NA19138"
            },
            "valueCodeableConcept": {
                "coding": [
                    {
                        "system": "http://loinc.org",
                        "code": "LA9633-4",
                        "display": "present"
                    }
                ]
            },
            "component": [
                {
                    "code": {
                        "coding": [
                            {
                                "system": "http://loinc.org",
                                "code": "62374-4",
                                "display": "Human reference sequence assembly version"
                            }
                        ]
                    },
                    "valueCodeableConcept": {
                        "coding": [
                            {
                                "system": "http://loinc.org",
                                "code": "LA14029-5",
                                "display": "GRCh37"
                            }
                        ]
                    }
                },
                {
                    "code": {
                        "coding": [
                            {
                                "system": "http://loinc.org",
                                "code": "48013-7",
                                "display": "Genomic reference sequence ID"
                            }
                        ]
                    },
                    "valueCodeableConcept": {
                        "coding": [
                            {
                                "system": "http://www.ncbi.nlm.nih.gov/nuccore",
                                "code": "NC_000006.11"
                            }
                        ]
                    }
                },
                {
                    "code": {
                        "coding": [
                            {
                                "system": "http://loinc.org",
                                "code": "53034-5",
                                "display": "Allelic state"
                            }
                        ]
                    },
                    "valueCodeableConcept": {
                        "coding": [
                            {
                                "system": "http://loinc.org",
                                "code": "LA6706-1",
                                "display": "heterozygous"
                            }
                        ]
                    }
                },
                {
                    "code": {
                        "coding": [
                            {
                                "system": "http://loinc.org",
                                "code": "69547-8",
                                "display": "Genomic Ref allele [ID]"
                            }
                        ]
                    },
                    "valueString": "C"
                },
                {
                    "code": {
                        "coding": [
                            {
                                "system": "http://loinc.org",
                                "code": "69551-0",
                                "display": "Genomic Alt allele [ID]"
                            }
                        ]
                    },
                    "valueString": "G"
                },
                {
                    "code": {
                        "coding": [
                            {
                                "system": "http://loinc.org",
                                "code": "92822-6",
                                "display": "Genomic coord system"
                            }
                        ]
                    },
                    "valueCodeableConcept": {
                        "coding": [
                            {
                                "system": "http://loinc.org",
                                "code": "LA30102-0",
                                "display": "1-based character counting"
                            }
                        ]
                    }
                },
                {
                    "code": {
                        "coding": [
                            {
                                "system": "http://hl7.org/fhir/uv/genomics-reporting/CodeSystem/tbd-codes",
                                "code": "exact-start-end",
                                "display": "Variant exact start and end"
                            }
                        ]
                    },
                    "valueRange": {
                        "low": {
                            "value": 18135816
                        }
                    }
                }
            ]
        },
        {
            "resourceType": "Observation",
            "id": "dv-7a55678623ba4",
            "meta": {
                "profile": [
                    "http://hl7.org/fhir/uv/genomics-reporting/StructureDefinition/variant"
                ]
            },
            "status": "final",
            "category": [
                {
                    "coding": [
                        {
                            "system": "http://terminology.hl7.org/CodeSystem/observation-category",
                            "code": "laboratory"
                        }
                    ]
                }
            ],
            "code": {
                "coding": [
                    {
                        "system": "http://loinc.org",
                        "code": "69548-6",
                        "display": "Genetic variant assessment"
                    }
                ]
            },
            "subject": {
                "reference": "Patient/NA19138"
            },
            "valueCodeableConcept": {
                "coding": [
                    {
                        "system": "http://loinc.org",
                        "code": "LA9633-4",
                        "display": "present"
                    }
                ]
            },
            "component": [
                {
                    "code": {
                        "coding": [
                            {
                                "system": "http://loinc.org",
                                "code": "62374-4",
                                "display": "Human reference sequence assembly version"
                            }
                        ]
                    },
                    "valueCodeableConcept": {
                        "coding": [
                            {
                                "system": "http://loinc.org",
                                "code": "LA14029-5",
                                "display": "GRCh37"
                            }
                        ]
                    }
                },
                {
                    "code": {
                        "coding": [
                            {
                                "system": "http://loinc.org",
                                "code": "48013-7",
                                "display": "Genomic reference sequence ID"
                            }
                        ]
                    },
                    "valueCodeableConcept": {
                        "coding": [
                            {
                                "system": "http://www.ncbi.nlm.nih.gov/nuccore",
                                "code": "NC_000006.11"
                            }
                        ]
                    }
                },
                {
                    "code": {
                        "coding": [
                            {
                                "system": "http://loinc.org",
                                "code": "53034-5",
                                "display": "Allelic state"
                            }
                        ]
                    },
                    "valueCodeableConcept": {
                        "coding": [
                            {
                                "system": "http://loinc.org",
                                "code": "LA6706-1",
                                "display": "heterozygous"
                            }
                        ]
                    }
                },
                {
                    "code": {
                        "coding": [
                            {
                                "system": "http://loinc.org",
                                "code": "69547-8",
                                "display": "Genomic Ref allele [ID]"
                            }
                        ]
                    },
                    "valueString": "T"
                },
                {
                    "code": {
                        "coding": [
                            {
                                "system": "http://loinc.org",
                                "code": "69551-0",
                                "display": "Genomic Alt allele [ID]"
                            }
                        ]
                    },
                    "valueString": "G"
                },
                {
                    "code": {
                        "coding": [
                            {
                                "system": "http://loinc.org",
                                "code": "92822-6",
                                "display": "Genomic coord system"
                            }
                        ]
                    },
                    "valueCodeableConcept": {
                        "coding": [
                            {
                                "system": "http://loinc.org",
                                "code": "LA30102-0",
                                "display": "1-based character counting"
                            }
                        ]
                    }
                },
                {
                    "code": {
                        "coding": [
                            {
                                "system": "http://hl7.org/fhir/uv/genomics-reporting/CodeSystem/tbd-codes",
                                "code": "exact-start-end",
                                "display": "Variant exact start and end"
                            }
                        ]
                    },
                    "valueRange": {
                        "low": {
                            "value": 18135993
                        }
                    }
                }
            ]
        },
        {
            "resourceType": "Observation",
            "id": "dv-5dd925543d904",
            "meta": {
                "profile": [
                    "http://hl7.org/fhir/uv/genomics-reporting/StructureDefinition/variant"
                ]
            },
            "status": "final",
            "category": [
                {
                    "coding": [
                        {
                            "system": "http://terminology.hl7.org/CodeSystem/observation-category",
                            "code": "laboratory"
                        }
                    ]
                }
            ],
            "code": {
                "coding": [
                    {
                        "system": "http://loinc.org",
                        "code": "69548-6",
                        "display": "Genetic variant assessment"
                    }
                ]
            },
            "subject": {
                "reference": "Patient/NA19138"
            },
            "valueCodeableConcept": {
                "coding": [
                    {
                        "system": "http://loinc.org",
                        "code": "LA9633-4",
                        "display": "present"
                    }
                ]
            },
            "component": [
                {
                    "code": {
                        "coding": [
                            {
                                "system": "http://loinc.org",
                                "code": "62374-4",
                                "display": "Human reference sequence assembly version"
                            }
                        ]
                    },
                    "valueCodeableConcept": {
                        "coding": [
                            {
                                "system": "http://loinc.org",
                                "code": "LA14029-5",
                                "display": "GRCh37"
                            }
                        ]
                    }
                },
                {
                    "code": {
                        "coding": [
                            {
                                "system": "http://loinc.org",
                                "code": "48013-7",
                                "display": "Genomic reference sequence ID"
                            }
                        ]
                    },
                    "valueCodeableConcept": {
                        "coding": [
                            {
                                "system": "http://www.ncbi.nlm.nih.gov/nuccore",
                                "code": "NC_000006.11"
                            }
                        ]
                    }
                },
                {
                    "code": {
                        "coding": [
                            {
                                "system": "http://loinc.org",
                                "code": "53034-5",
                                "display": "Allelic state"
                            }
                        ]
                    },
                    "valueCodeableConcept": {
                        "coding": [
                            {
                                "system": "http://loinc.org",
                                "code": "LA6706-1",
                                "display": "heterozygous"
                            }
                        ]
                    }
                },
                {
                    "code": {
                        "coding": [
                            {
                                "system": "http://loinc.org",
                                "code": "69547-8",
                                "display": "Genomic Ref allele [ID]"
                            }
                        ]
                    },
                    "valueString": "C"
                },
                {
                    "code": {
                        "coding": [
                            {
                                "system": "http://loinc.org",
                                "code": "69551-0",
                                "display": "Genomic Alt allele [ID]"
                            }
                        ]
                    },
                    "valueString": "T"
                },
                {
                    "code": {
                        "coding": [
                            {
                                "system": "http://loinc.org",
                                "code": "92822-6",
                                "display": "Genomic coord system"
                            }
                        ]
                    },
                    "valueCodeableConcept": {
                        "coding": [
                            {
                                "system": "http://loinc.org",
                                "code": "LA30102-0",
                                "display": "1-based character counting"
                            }
                        ]
                    }
                },
                {
                    "code": {
                        "coding": [
                            {
                                "system": "http://hl7.org/fhir/uv/genomics-reporting/CodeSystem/tbd-codes",
                                "code": "exact-start-end",
                                "display": "Variant exact start and end"
                            }
                        ]
                    },
                    "valueRange": {
                        "low": {
                            "value": 18136482
                        }
                    }
                }
            ]
        },
        {
            "resourceType": "Observation",
            "id": "dv-9549a7390ff24",
            "meta": {
                "profile": [
                    "http://hl7.org/fhir/uv/genomics-reporting/StructureDefinition/variant"
                ]
            },
            "status": "final",
            "category": [
                {
                    "coding": [
                        {
                            "system": "http://terminology.hl7.org/CodeSystem/observation-category",
                            "code": "laboratory"
                        }
                    ]
                }
            ],
            "code": {
                "coding": [
                    {
                        "system": "http://loinc.org",
                        "code": "69548-6",
                        "display": "Genetic variant assessment"
                    }
                ]
            },
            "subject": {
                "reference": "Patient/NA19138"
            },
            "valueCodeableConcept": {
                "coding": [
                    {
                        "system": "http://loinc.org",
                        "code": "LA9633-4",
                        "display": "present"
                    }
                ]
            },
            "component": [
                {
                    "code": {
                        "coding": [
                            {
                                "system": "http://loinc.org",
                                "code": "62374-4",
                                "display": "Human reference sequence assembly version"
                            }
                        ]
                    },
                    "valueCodeableConcept": {
                        "coding": [
                            {
                                "system": "http://loinc.org",
                                "code": "LA14029-5",
                                "display": "GRCh37"
                            }
                        ]
                    }
                },
                {
                    "code": {
                        "coding": [
                            {
                                "system": "http://loinc.org",
                                "code": "48013-7",
                                "display": "Genomic reference sequence ID"
                            }
                        ]
                    },
                    "valueCodeableConcept": {
                        "coding": [
                            {
                                "system": "http://www.ncbi.nlm.nih.gov/nuccore",
                                "code": "NC_000006.11"
                            }
                        ]
                    }
                },
                {
                    "code": {
                        "coding": [
                            {
                                "system": "http://loinc.org",
                                "code": "53034-5",
                                "display": "Allelic state"
                            }
                        ]
                    },
                    "valueCodeableConcept": {
                        "coding": [
                            {
                                "system": "http://loinc.org",
                                "code": "LA6706-1",
                                "display": "heterozygous"
                            }
                        ]
                    }
                },
                {
                    "code": {
                        "coding": [
                            {
                                "system": "http://loinc.org",
                                "code": "69547-8",
                                "display": "Genomic Ref allele [ID]"
                            }
                        ]
                    },
                    "valueString": "T"
                },
                {
                    "code": {
                        "coding": [
                            {
                                "system": "http://loinc.org",
                                "code": "69551-0",
                                "display": "Genomic Alt allele [ID]"
                            }
                        ]
                    },
                    "valueString": "C"
                },
                {
                    "code": {
                        "coding": [
                            {
                                "system": "http://loinc.org",
                                "code": "92822-6",
                                "display": "Genomic coord system"
                            }
                        ]
                    },
                    "valueCodeableConcept": {
                        "coding": [
                            {
                                "system": "http://loinc.org",
                                "code": "LA30102-0",
                                "display": "1-based character counting"
                            }
                        ]
                    }
                },
                {
                    "code": {
                        "coding": [
                            {
                                "system": "http://hl7.org/fhir/uv/genomics-reporting/CodeSystem/tbd-codes",
                                "code": "exact-start-end",
                                "display": "Variant exact start and end"
                            }
                        ]
                    },
                    "valueRange": {
                        "low": {
                            "value": 18137036
                        }
                    }
                }
            ]
        },
        {
            "resourceType": "Observation",
            "id": "dv-7c4f518044a34",
            "meta": {
                "profile": [
                    "http://hl7.org/fhir/uv/genomics-reporting/StructureDefinition/variant"
                ]
            },
            "status": "final",
            "category": [
                {
                    "coding": [
                        {
                            "system": "http://terminology.hl7.org/CodeSystem/observation-category",
                            "code": "laboratory"
                        }
                    ]
                }
            ],
            "code": {
                "coding": [
                    {
                        "system": "http://loinc.org",
                        "code": "69548-6",
                        "display": "Genetic variant assessment"
                    }
                ]
            },
            "subject": {
                "reference": "Patient/NA19138"
            },
            "valueCodeableConcept": {
                "coding": [
                    {
                        "system": "http://loinc.org",
                        "code": "LA9633-4",
                        "display": "present"
                    }
                ]
            },
            "component": [
                {
                    "code": {
                        "coding": [
                            {
                                "system": "http://loinc.org",
                                "code": "62374-4",
                                "display": "Human reference sequence assembly version"
                            }
                        ]
                    },
                    "valueCodeableConcept": {
                        "coding": [
                            {
                                "system": "http://loinc.org",
                                "code": "LA14029-5",
                                "display": "GRCh37"
                            }
                        ]
                    }
                },
                {
                    "code": {
                        "coding": [
                            {
                                "system": "http://loinc.org",
                                "code": "48013-7",
                                "display": "Genomic reference sequence ID"
                            }
                        ]
                    },
                    "valueCodeableConcept": {
                        "coding": [
                            {
                                "system": "http://www.ncbi.nlm.nih.gov/nuccore",
                                "code": "NC_000006.11"
                            }
                        ]
                    }
                },
                {
                    "code": {
                        "coding": [
                            {
                                "system": "http://loinc.org",
                                "code": "53034-5",
                                "display": "Allelic state"
                            }
                        ]
                    },
                    "valueCodeableConcept": {
                        "coding": [
                            {
                                "system": "http://loinc.org",
                                "code": "LA6706-1",
                                "display": "heterozygous"
                            }
                        ]
                    }
                },
                {
                    "code": {
                        "coding": [
                            {
                                "system": "http://loinc.org",
                                "code": "69547-8",
                                "display": "Genomic Ref allele [ID]"
                            }
                        ]
                    },
                    "valueString": "G"
                },
                {
                    "code": {
                        "coding": [
                            {
                                "system": "http://loinc.org",
                                "code": "69551-0",
                                "display": "Genomic Alt allele [ID]"
                            }
                        ]
                    },
                    "valueString": "GT"
                },
                {
                    "code": {
                        "coding": [
                            {
                                "system": "http://loinc.org",
                                "code": "92822-6",
                                "display": "Genomic coord system"
                            }
                        ]
                    },
                    "valueCodeableConcept": {
                        "coding": [
                            {
                                "system": "http://loinc.org",
                                "code": "LA30102-0",
                                "display": "1-based character counting"
                            }
                        ]
                    }
                },
                {
                    "code": {
                        "coding": [
                            {
                                "system": "http://hl7.org/fhir/uv/genomics-reporting/CodeSystem/tbd-codes",
                                "code": "exact-start-end",
                                "display": "Variant exact start and end"
                            }
                        ]
                    },
                    "valueRange": {
                        "low": {
                            "value": 18137357
                        }
                    }
                }
            ]
        },
        {
            "resourceType": "Observation",
            "id": "dv-d0cc4b1001de4",
            "meta": {
                "profile": [
                    "http://hl7.org/fhir/uv/genomics-reporting/StructureDefinition/variant"
                ]
            },
            "status": "final",
            "category": [
                {
                    "coding": [
                        {
                            "system": "http://terminology.hl7.org/CodeSystem/observation-category",
                            "code": "laboratory"
                        }
                    ]
                }
            ],
            "code": {
                "coding": [
                    {
                        "system": "http://loinc.org",
                        "code": "69548-6",
                        "display": "Genetic variant assessment"
                    }
                ]
            },
            "subject": {
                "reference": "Patient/NA19138"
            },
            "valueCodeableConcept": {
                "coding": [
                    {
                        "system": "http://loinc.org",
                        "code": "LA9633-4",
                        "display": "present"
                    }
                ]
            },
            "component": [
                {
                    "code": {
                        "coding": [
                            {
                                "system": "http://loinc.org",
                                "code": "62374-4",
                                "display": "Human reference sequence assembly version"
                            }
                        ]
                    },
                    "valueCodeableConcept": {
                        "coding": [
                            {
                                "system": "http://loinc.org",
                                "code": "LA14029-5",
                                "display": "GRCh37"
                            }
                        ]
                    }
                },
                {
                    "code": {
                        "coding": [
                            {
                                "system": "http://loinc.org",
                                "code": "48013-7",
                                "display": "Genomic reference sequence ID"
                            }
                        ]
                    },
                    "valueCodeableConcept": {
                        "coding": [
                            {
                                "system": "http://www.ncbi.nlm.nih.gov/nuccore",
                                "code": "NC_000006.11"
                            }
                        ]
                    }
                },
                {
                    "code": {
                        "coding": [
                            {
                                "system": "http://loinc.org",
                                "code": "53034-5",
                                "display": "Allelic state"
                            }
                        ]
                    },
                    "valueCodeableConcept": {
                        "coding": [
                            {
                                "system": "http://loinc.org",
                                "code": "LA6706-1",
                                "display": "heterozygous"
                            }
                        ]
                    }
                },
                {
                    "code": {
                        "coding": [
                            {
                                "system": "http://loinc.org",
                                "code": "69547-8",
                                "display": "Genomic Ref allele [ID]"
                            }
                        ]
                    },
                    "valueString": "GAC"
                },
                {
                    "code": {
                        "coding": [
                            {
                                "system": "http://loinc.org",
                                "code": "69551-0",
                                "display": "Genomic Alt allele [ID]"
                            }
                        ]
                    },
                    "valueString": "G"
                },
                {
                    "code": {
                        "coding": [
                            {
                                "system": "http://loinc.org",
                                "code": "92822-6",
                                "display": "Genomic coord system"
                            }
                        ]
                    },
                    "valueCodeableConcept": {
                        "coding": [
                            {
                                "system": "http://loinc.org",
                                "code": "LA30102-0",
                                "display": "1-based character counting"
                            }
                        ]
                    }
                },
                {
                    "code": {
                        "coding": [
                            {
                                "system": "http://hl7.org/fhir/uv/genomics-reporting/CodeSystem/tbd-codes",
                                "code": "exact-start-end",
                                "display": "Variant exact start and end"
                            }
                        ]
                    },
                    "valueRange": {
                        "low": {
                            "value": 18137926
                        }
                    }
                }
            ]
        },
        {
            "resourceType": "Observation",
            "id": "dv-9b964cb83b0a4",
            "meta": {
                "profile": [
                    "http://hl7.org/fhir/uv/genomics-reporting/StructureDefinition/variant"
                ]
            },
            "status": "final",
            "category": [
                {
                    "coding": [
                        {
                            "system": "http://terminology.hl7.org/CodeSystem/observation-category",
                            "code": "laboratory"
                        }
                    ]
                }
            ],
            "code": {
                "coding": [
                    {
                        "system": "http://loinc.org",
                        "code": "69548-6",
                        "display": "Genetic variant assessment"
                    }
                ]
            },
            "subject": {
                "reference": "Patient/NA19138"
            },
            "valueCodeableConcept": {
                "coding": [
                    {
                        "system": "http://loinc.org",
                        "code": "LA9633-4",
                        "display": "present"
                    }
                ]
            },
            "component": [
                {
                    "code": {
                        "coding": [
                            {
                                "system": "http://loinc.org",
                                "code": "62374-4",
                                "display": "Human reference sequence assembly version"
                            }
                        ]
                    },
                    "valueCodeableConcept": {
                        "coding": [
                            {
                                "system": "http://loinc.org",
                                "code": "LA14029-5",
                                "display": "GRCh37"
                            }
                        ]
                    }
                },
                {
                    "code": {
                        "coding": [
                            {
                                "system": "http://loinc.org",
                                "code": "48013-7",
                                "display": "Genomic reference sequence ID"
                            }
                        ]
                    },
                    "valueCodeableConcept": {
                        "coding": [
                            {
                                "system": "http://www.ncbi.nlm.nih.gov/nuccore",
                                "code": "NC_000006.11"
                            }
                        ]
                    }
                },
                {
                    "code": {
                        "coding": [
                            {
                                "system": "http://loinc.org",
                                "code": "53034-5",
                                "display": "Allelic state"
                            }
                        ]
                    },
                    "valueCodeableConcept": {
                        "coding": [
                            {
                                "system": "http://loinc.org",
                                "code": "LA6706-1",
                                "display": "heterozygous"
                            }
                        ]
                    }
                },
                {
                    "code": {
                        "coding": [
                            {
                                "system": "http://loinc.org",
                                "code": "69547-8",
                                "display": "Genomic Ref allele [ID]"
                            }
                        ]
                    },
                    "valueString": "T"
                },
                {
                    "code": {
                        "coding": [
                            {
                                "system": "http://loinc.org",
                                "code": "69551-0",
                                "display": "Genomic Alt allele [ID]"
                            }
                        ]
                    },
                    "valueString": "C"
                },
                {
                    "code": {
                        "coding": [
                            {
                                "system": "http://loinc.org",
                                "code": "92822-6",
                                "display": "Genomic coord system"
                            }
                        ]
                    },
                    "valueCodeableConcept": {
                        "coding": [
                            {
                                "system": "http://loinc.org",
                                "code": "LA30102-0",
                                "display": "1-based character counting"
                            }
                        ]
                    }
                },
                {
                    "code": {
                        "coding": [
                            {
                                "system": "http://hl7.org/fhir/uv/genomics-reporting/CodeSystem/tbd-codes",
                                "code": "exact-start-end",
                                "display": "Variant exact start and end"
                            }
                        ]
                    },
                    "valueRange": {
                        "low": {
                            "value": 18138238
                        }
                    }
                }
            ]
        },
        {
            "resourceType": "Observation",
            "id": "dv-0c36a26be13c4",
            "meta": {
                "profile": [
                    "http://hl7.org/fhir/uv/genomics-reporting/StructureDefinition/variant"
                ]
            },
            "status": "final",
            "category": [
                {
                    "coding": [
                        {
                            "system": "http://terminology.hl7.org/CodeSystem/observation-category",
                            "code": "laboratory"
                        }
                    ]
                }
            ],
            "code": {
                "coding": [
                    {
                        "system": "http://loinc.org",
                        "code": "69548-6",
                        "display": "Genetic variant assessment"
                    }
                ]
            },
            "subject": {
                "reference": "Patient/NA19138"
            },
            "valueCodeableConcept": {
                "coding": [
                    {
                        "system": "http://loinc.org",
                        "code": "LA9633-4",
                        "display": "present"
                    }
                ]
            },
            "component": [
                {
                    "code": {
                        "coding": [
                            {
                                "system": "http://loinc.org",
                                "code": "62374-4",
                                "display": "Human reference sequence assembly version"
                            }
                        ]
                    },
                    "valueCodeableConcept": {
                        "coding": [
                            {
                                "system": "http://loinc.org",
                                "code": "LA14029-5",
                                "display": "GRCh37"
                            }
                        ]
                    }
                },
                {
                    "code": {
                        "coding": [
                            {
                                "system": "http://loinc.org",
                                "code": "48013-7",
                                "display": "Genomic reference sequence ID"
                            }
                        ]
                    },
                    "valueCodeableConcept": {
                        "coding": [
                            {
                                "system": "http://www.ncbi.nlm.nih.gov/nuccore",
                                "code": "NC_000006.11"
                            }
                        ]
                    }
                },
                {
                    "code": {
                        "coding": [
                            {
                                "system": "http://loinc.org",
                                "code": "53034-5",
                                "display": "Allelic state"
                            }
                        ]
                    },
                    "valueCodeableConcept": {
                        "coding": [
                            {
                                "system": "http://loinc.org",
                                "code": "LA6706-1",
                                "display": "heterozygous"
                            }
                        ]
                    }
                },
                {
                    "code": {
                        "coding": [
                            {
                                "system": "http://loinc.org",
                                "code": "69547-8",
                                "display": "Genomic Ref allele [ID]"
                            }
                        ]
                    },
                    "valueString": "C"
                },
                {
                    "code": {
                        "coding": [
                            {
                                "system": "http://loinc.org",
                                "code": "69551-0",
                                "display": "Genomic Alt allele [ID]"
                            }
                        ]
                    },
                    "valueString": "T"
                },
                {
                    "code": {
                        "coding": [
                            {
                                "system": "http://loinc.org",
                                "code": "92822-6",
                                "display": "Genomic coord system"
                            }
                        ]
                    },
                    "valueCodeableConcept": {
                        "coding": [
                            {
                                "system": "http://loinc.org",
                                "code": "LA30102-0",
                                "display": "1-based character counting"
                            }
                        ]
                    }
                },
                {
                    "code": {
                        "coding": [
                            {
                                "system": "http://hl7.org/fhir/uv/genomics-reporting/CodeSystem/tbd-codes",
                                "code": "exact-start-end",
                                "display": "Variant exact start and end"
                            }
                        ]
                    },
                    "valueRange": {
                        "low": {
                            "value": 18138290
                        }
                    }
                }
            ]
        },
        {
            "resourceType": "Observation",
            "id": "dv-039362972e294",
            "meta": {
                "profile": [
                    "http://hl7.org/fhir/uv/genomics-reporting/StructureDefinition/variant"
                ]
            },
            "status": "final",
            "category": [
                {
                    "coding": [
                        {
                            "system": "http://terminology.hl7.org/CodeSystem/observation-category",
                            "code": "laboratory"
                        }
                    ]
                }
            ],
            "code": {
                "coding": [
                    {
                        "system": "http://loinc.org",
                        "code": "69548-6",
                        "display": "Genetic variant assessment"
                    }
                ]
            },
            "subject": {
                "reference": "Patient/NA19138"
            },
            "valueCodeableConcept": {
                "coding": [
                    {
                        "system": "http://loinc.org",
                        "code": "LA9633-4",
                        "display": "present"
                    }
                ]
            },
            "component": [
                {
                    "code": {
                        "coding": [
                            {
                                "system": "http://loinc.org",
                                "code": "62374-4",
                                "display": "Human reference sequence assembly version"
                            }
                        ]
                    },
                    "valueCodeableConcept": {
                        "coding": [
                            {
                                "system": "http://loinc.org",
                                "code": "LA14029-5",
                                "display": "GRCh37"
                            }
                        ]
                    }
                },
                {
                    "code": {
                        "coding": [
                            {
                                "system": "http://loinc.org",
                                "code": "48013-7",
                                "display": "Genomic reference sequence ID"
                            }
                        ]
                    },
                    "valueCodeableConcept": {
                        "coding": [
                            {
                                "system": "http://www.ncbi.nlm.nih.gov/nuccore",
                                "code": "NC_000006.11"
                            }
                        ]
                    }
                },
                {
                    "code": {
                        "coding": [
                            {
                                "system": "http://loinc.org",
                                "code": "53034-5",
                                "display": "Allelic state"
                            }
                        ]
                    },
                    "valueCodeableConcept": {
                        "coding": [
                            {
                                "system": "http://loinc.org",
                                "code": "LA6706-1",
                                "display": "heterozygous"
                            }
                        ]
                    }
                },
                {
                    "code": {
                        "coding": [
                            {
                                "system": "http://loinc.org",
                                "code": "69547-8",
                                "display": "Genomic Ref allele [ID]"
                            }
                        ]
                    },
                    "valueString": "C"
                },
                {
                    "code": {
                        "coding": [
                            {
                                "system": "http://loinc.org",
                                "code": "69551-0",
                                "display": "Genomic Alt allele [ID]"
                            }
                        ]
                    },
                    "valueString": "T"
                },
                {
                    "code": {
                        "coding": [
                            {
                                "system": "http://loinc.org",
                                "code": "92822-6",
                                "display": "Genomic coord system"
                            }
                        ]
                    },
                    "valueCodeableConcept": {
                        "coding": [
                            {
                                "system": "http://loinc.org",
                                "code": "LA30102-0",
                                "display": "1-based character counting"
                            }
                        ]
                    }
                },
                {
                    "code": {
                        "coding": [
                            {
                                "system": "http://hl7.org/fhir/uv/genomics-reporting/CodeSystem/tbd-codes",
                                "code": "exact-start-end",
                                "display": "Variant exact start and end"
                            }
                        ]
                    },
                    "valueRange": {
                        "low": {
                            "value": 18138306
                        }
                    }
                }
            ]
        },
        {
            "resourceType": "Observation",
            "id": "dv-ff4989742f124",
            "meta": {
                "profile": [
                    "http://hl7.org/fhir/uv/genomics-reporting/StructureDefinition/variant"
                ]
            },
            "status": "final",
            "category": [
                {
                    "coding": [
                        {
                            "system": "http://terminology.hl7.org/CodeSystem/observation-category",
                            "code": "laboratory"
                        }
                    ]
                }
            ],
            "code": {
                "coding": [
                    {
                        "system": "http://loinc.org",
                        "code": "69548-6",
                        "display": "Genetic variant assessment"
                    }
                ]
            },
            "subject": {
                "reference": "Patient/NA19138"
            },
            "valueCodeableConcept": {
                "coding": [
                    {
                        "system": "http://loinc.org",
                        "code": "LA9633-4",
                        "display": "present"
                    }
                ]
            },
            "component": [
                {
                    "code": {
                        "coding": [
                            {
                                "system": "http://loinc.org",
                                "code": "62374-4",
                                "display": "Human reference sequence assembly version"
                            }
                        ]
                    },
                    "valueCodeableConcept": {
                        "coding": [
                            {
                                "system": "http://loinc.org",
                                "code": "LA14029-5",
                                "display": "GRCh37"
                            }
                        ]
                    }
                },
                {
                    "code": {
                        "coding": [
                            {
                                "system": "http://loinc.org",
                                "code": "48013-7",
                                "display": "Genomic reference sequence ID"
                            }
                        ]
                    },
                    "valueCodeableConcept": {
                        "coding": [
                            {
                                "system": "http://www.ncbi.nlm.nih.gov/nuccore",
                                "code": "NC_000006.11"
                            }
                        ]
                    }
                },
                {
                    "code": {
                        "coding": [
                            {
                                "system": "http://loinc.org",
                                "code": "53034-5",
                                "display": "Allelic state"
                            }
                        ]
                    },
                    "valueCodeableConcept": {
                        "coding": [
                            {
                                "system": "http://loinc.org",
                                "code": "LA6706-1",
                                "display": "heterozygous"
                            }
                        ]
                    }
                },
                {
                    "code": {
                        "coding": [
                            {
                                "system": "http://loinc.org",
                                "code": "69547-8",
                                "display": "Genomic Ref allele [ID]"
                            }
                        ]
                    },
                    "valueString": "A"
                },
                {
                    "code": {
                        "coding": [
                            {
                                "system": "http://loinc.org",
                                "code": "69551-0",
                                "display": "Genomic Alt allele [ID]"
                            }
                        ]
                    },
                    "valueString": "G"
                },
                {
                    "code": {
                        "coding": [
                            {
                                "system": "http://loinc.org",
                                "code": "92822-6",
                                "display": "Genomic coord system"
                            }
                        ]
                    },
                    "valueCodeableConcept": {
                        "coding": [
                            {
                                "system": "http://loinc.org",
                                "code": "LA30102-0",
                                "display": "1-based character counting"
                            }
                        ]
                    }
                },
                {
                    "code": {
                        "coding": [
                            {
                                "system": "http://hl7.org/fhir/uv/genomics-reporting/CodeSystem/tbd-codes",
                                "code": "exact-start-end",
                                "display": "Variant exact start and end"
                            }
                        ]
                    },
                    "valueRange": {
                        "low": {
                            "value": 18138552
                        }
                    }
                }
            ]
        },
        {
            "resourceType": "Observation",
            "id": "dv-7ebe4dd04a8c4",
            "meta": {
                "profile": [
                    "http://hl7.org/fhir/uv/genomics-reporting/StructureDefinition/variant"
                ]
            },
            "status": "final",
            "category": [
                {
                    "coding": [
                        {
                            "system": "http://terminology.hl7.org/CodeSystem/observation-category",
                            "code": "laboratory"
                        }
                    ]
                }
            ],
            "code": {
                "coding": [
                    {
                        "system": "http://loinc.org",
                        "code": "69548-6",
                        "display": "Genetic variant assessment"
                    }
                ]
            },
            "subject": {
                "reference": "Patient/NA19138"
            },
            "valueCodeableConcept": {
                "coding": [
                    {
                        "system": "http://loinc.org",
                        "code": "LA9633-4",
                        "display": "present"
                    }
                ]
            },
            "component": [
                {
                    "code": {
                        "coding": [
                            {
                                "system": "http://loinc.org",
                                "code": "62374-4",
                                "display": "Human reference sequence assembly version"
                            }
                        ]
                    },
                    "valueCodeableConcept": {
                        "coding": [
                            {
                                "system": "http://loinc.org",
                                "code": "LA14029-5",
                                "display": "GRCh37"
                            }
                        ]
                    }
                },
                {
                    "code": {
                        "coding": [
                            {
                                "system": "http://loinc.org",
                                "code": "48013-7",
                                "display": "Genomic reference sequence ID"
                            }
                        ]
                    },
                    "valueCodeableConcept": {
                        "coding": [
                            {
                                "system": "http://www.ncbi.nlm.nih.gov/nuccore",
                                "code": "NC_000006.11"
                            }
                        ]
                    }
                },
                {
                    "code": {
                        "coding": [
                            {
                                "system": "http://loinc.org",
                                "code": "53034-5",
                                "display": "Allelic state"
                            }
                        ]
                    },
                    "valueCodeableConcept": {
                        "coding": [
                            {
                                "system": "http://loinc.org",
                                "code": "LA6706-1",
                                "display": "heterozygous"
                            }
                        ]
                    }
                },
                {
                    "code": {
                        "coding": [
                            {
                                "system": "http://loinc.org",
                                "code": "69547-8",
                                "display": "Genomic Ref allele [ID]"
                            }
                        ]
                    },
                    "valueString": "A"
                },
                {
                    "code": {
                        "coding": [
                            {
                                "system": "http://loinc.org",
                                "code": "69551-0",
                                "display": "Genomic Alt allele [ID]"
                            }
                        ]
                    },
                    "valueString": "C"
                },
                {
                    "code": {
                        "coding": [
                            {
                                "system": "http://loinc.org",
                                "code": "92822-6",
                                "display": "Genomic coord system"
                            }
                        ]
                    },
                    "valueCodeableConcept": {
                        "coding": [
                            {
                                "system": "http://loinc.org",
                                "code": "LA30102-0",
                                "display": "1-based character counting"
                            }
                        ]
                    }
                },
                {
                    "code": {
                        "coding": [
                            {
                                "system": "http://hl7.org/fhir/uv/genomics-reporting/CodeSystem/tbd-codes",
                                "code": "exact-start-end",
                                "display": "Variant exact start and end"
                            }
                        ]
                    },
                    "valueRange": {
                        "low": {
                            "value": 18138827
                        }
                    }
                }
            ]
        },
        {
            "resourceType": "Observation",
            "id": "dv-4e26c4df4a024",
            "meta": {
                "profile": [
                    "http://hl7.org/fhir/uv/genomics-reporting/StructureDefinition/variant"
                ]
            },
            "status": "final",
            "category": [
                {
                    "coding": [
                        {
                            "system": "http://terminology.hl7.org/CodeSystem/observation-category",
                            "code": "laboratory"
                        }
                    ]
                }
            ],
            "code": {
                "coding": [
                    {
                        "system": "http://loinc.org",
                        "code": "69548-6",
                        "display": "Genetic variant assessment"
                    }
                ]
            },
            "subject": {
                "reference": "Patient/NA19138"
            },
            "valueCodeableConcept": {
                "coding": [
                    {
                        "system": "http://loinc.org",
                        "code": "LA9633-4",
                        "display": "present"
                    }
                ]
            },
            "component": [
                {
                    "code": {
                        "coding": [
                            {
                                "system": "http://loinc.org",
                                "code": "62374-4",
                                "display": "Human reference sequence assembly version"
                            }
                        ]
                    },
                    "valueCodeableConcept": {
                        "coding": [
                            {
                                "system": "http://loinc.org",
                                "code": "LA14029-5",
                                "display": "GRCh37"
                            }
                        ]
                    }
                },
                {
                    "code": {
                        "coding": [
                            {
                                "system": "http://loinc.org",
                                "code": "48013-7",
                                "display": "Genomic reference sequence ID"
                            }
                        ]
                    },
                    "valueCodeableConcept": {
                        "coding": [
                            {
                                "system": "http://www.ncbi.nlm.nih.gov/nuccore",
                                "code": "NC_000006.11"
                            }
                        ]
                    }
                },
                {
                    "code": {
                        "coding": [
                            {
                                "system": "http://loinc.org",
                                "code": "53034-5",
                                "display": "Allelic state"
                            }
                        ]
                    },
                    "valueCodeableConcept": {
                        "coding": [
                            {
                                "system": "http://loinc.org",
                                "code": "LA6706-1",
                                "display": "heterozygous"
                            }
                        ]
                    }
                },
                {
                    "code": {
                        "coding": [
                            {
                                "system": "http://loinc.org",
                                "code": "69547-8",
                                "display": "Genomic Ref allele [ID]"
                            }
                        ]
                    },
                    "valueString": "G"
                },
                {
                    "code": {
                        "coding": [
                            {
                                "system": "http://loinc.org",
                                "code": "69551-0",
                                "display": "Genomic Alt allele [ID]"
                            }
                        ]
                    },
                    "valueString": "A"
                },
                {
                    "code": {
                        "coding": [
                            {
                                "system": "http://loinc.org",
                                "code": "92822-6",
                                "display": "Genomic coord system"
                            }
                        ]
                    },
                    "valueCodeableConcept": {
                        "coding": [
                            {
                                "system": "http://loinc.org",
                                "code": "LA30102-0",
                                "display": "1-based character counting"
                            }
                        ]
                    }
                },
                {
                    "code": {
                        "coding": [
                            {
                                "system": "http://hl7.org/fhir/uv/genomics-reporting/CodeSystem/tbd-codes",
                                "code": "exact-start-end",
                                "display": "Variant exact start and end"
                            }
                        ]
                    },
                    "valueRange": {
                        "low": {
                            "value": 18139214
                        }
                    }
                }
            ]
        },
        {
            "resourceType": "Observation",
            "id": "dv-6ec33f0f98464",
            "meta": {
                "profile": [
                    "http://hl7.org/fhir/uv/genomics-reporting/StructureDefinition/variant"
                ]
            },
            "status": "final",
            "category": [
                {
                    "coding": [
                        {
                            "system": "http://terminology.hl7.org/CodeSystem/observation-category",
                            "code": "laboratory"
                        }
                    ]
                }
            ],
            "code": {
                "coding": [
                    {
                        "system": "http://loinc.org",
                        "code": "69548-6",
                        "display": "Genetic variant assessment"
                    }
                ]
            },
            "subject": {
                "reference": "Patient/NA19138"
            },
            "valueCodeableConcept": {
                "coding": [
                    {
                        "system": "http://loinc.org",
                        "code": "LA9633-4",
                        "display": "present"
                    }
                ]
            },
            "component": [
                {
                    "code": {
                        "coding": [
                            {
                                "system": "http://loinc.org",
                                "code": "62374-4",
                                "display": "Human reference sequence assembly version"
                            }
                        ]
                    },
                    "valueCodeableConcept": {
                        "coding": [
                            {
                                "system": "http://loinc.org",
                                "code": "LA14029-5",
                                "display": "GRCh37"
                            }
                        ]
                    }
                },
                {
                    "code": {
                        "coding": [
                            {
                                "system": "http://loinc.org",
                                "code": "48013-7",
                                "display": "Genomic reference sequence ID"
                            }
                        ]
                    },
                    "valueCodeableConcept": {
                        "coding": [
                            {
                                "system": "http://www.ncbi.nlm.nih.gov/nuccore",
                                "code": "NC_000006.11"
                            }
                        ]
                    }
                },
                {
                    "code": {
                        "coding": [
                            {
                                "system": "http://loinc.org",
                                "code": "53034-5",
                                "display": "Allelic state"
                            }
                        ]
                    },
                    "valueCodeableConcept": {
                        "coding": [
                            {
                                "system": "http://loinc.org",
                                "code": "LA6706-1",
                                "display": "heterozygous"
                            }
                        ]
                    }
                },
                {
                    "code": {
                        "coding": [
                            {
                                "system": "http://loinc.org",
                                "code": "69547-8",
                                "display": "Genomic Ref allele [ID]"
                            }
                        ]
                    },
                    "valueString": "A"
                },
                {
                    "code": {
                        "coding": [
                            {
                                "system": "http://loinc.org",
                                "code": "69551-0",
                                "display": "Genomic Alt allele [ID]"
                            }
                        ]
                    },
                    "valueString": "T"
                },
                {
                    "code": {
                        "coding": [
                            {
                                "system": "http://loinc.org",
                                "code": "92822-6",
                                "display": "Genomic coord system"
                            }
                        ]
                    },
                    "valueCodeableConcept": {
                        "coding": [
                            {
                                "system": "http://loinc.org",
                                "code": "LA30102-0",
                                "display": "1-based character counting"
                            }
                        ]
                    }
                },
                {
                    "code": {
                        "coding": [
                            {
                                "system": "http://hl7.org/fhir/uv/genomics-reporting/CodeSystem/tbd-codes",
                                "code": "exact-start-end",
                                "display": "Variant exact start and end"
                            }
                        ]
                    },
                    "valueRange": {
                        "low": {
                            "value": 18139802
                        }
                    }
                }
            ]
        },
        {
            "resourceType": "Observation",
            "id": "dv-af3a1f8b92f44",
            "meta": {
                "profile": [
                    "http://hl7.org/fhir/uv/genomics-reporting/StructureDefinition/variant"
                ]
            },
            "status": "final",
            "category": [
                {
                    "coding": [
                        {
                            "system": "http://terminology.hl7.org/CodeSystem/observation-category",
                            "code": "laboratory"
                        }
                    ]
                }
            ],
            "code": {
                "coding": [
                    {
                        "system": "http://loinc.org",
                        "code": "69548-6",
                        "display": "Genetic variant assessment"
                    }
                ]
            },
            "subject": {
                "reference": "Patient/NA19138"
            },
            "valueCodeableConcept": {
                "coding": [
                    {
                        "system": "http://loinc.org",
                        "code": "LA9633-4",
                        "display": "present"
                    }
                ]
            },
            "component": [
                {
                    "code": {
                        "coding": [
                            {
                                "system": "http://loinc.org",
                                "code": "62374-4",
                                "display": "Human reference sequence assembly version"
                            }
                        ]
                    },
                    "valueCodeableConcept": {
                        "coding": [
                            {
                                "system": "http://loinc.org",
                                "code": "LA14029-5",
                                "display": "GRCh37"
                            }
                        ]
                    }
                },
                {
                    "code": {
                        "coding": [
                            {
                                "system": "http://loinc.org",
                                "code": "48013-7",
                                "display": "Genomic reference sequence ID"
                            }
                        ]
                    },
                    "valueCodeableConcept": {
                        "coding": [
                            {
                                "system": "http://www.ncbi.nlm.nih.gov/nuccore",
                                "code": "NC_000006.11"
                            }
                        ]
                    }
                },
                {
                    "code": {
                        "coding": [
                            {
                                "system": "http://loinc.org",
                                "code": "53034-5",
                                "display": "Allelic state"
                            }
                        ]
                    },
                    "valueCodeableConcept": {
                        "coding": [
                            {
                                "system": "http://loinc.org",
                                "code": "LA6706-1",
                                "display": "heterozygous"
                            }
                        ]
                    }
                },
                {
                    "code": {
                        "coding": [
                            {
                                "system": "http://loinc.org",
                                "code": "69547-8",
                                "display": "Genomic Ref allele [ID]"
                            }
                        ]
                    },
                    "valueString": "T"
                },
                {
                    "code": {
                        "coding": [
                            {
                                "system": "http://loinc.org",
                                "code": "69551-0",
                                "display": "Genomic Alt allele [ID]"
                            }
                        ]
                    },
                    "valueString": "C"
                },
                {
                    "code": {
                        "coding": [
                            {
                                "system": "http://loinc.org",
                                "code": "92822-6",
                                "display": "Genomic coord system"
                            }
                        ]
                    },
                    "valueCodeableConcept": {
                        "coding": [
                            {
                                "system": "http://loinc.org",
                                "code": "LA30102-0",
                                "display": "1-based character counting"
                            }
                        ]
                    }
                },
                {
                    "code": {
                        "coding": [
                            {
                                "system": "http://hl7.org/fhir/uv/genomics-reporting/CodeSystem/tbd-codes",
                                "code": "exact-start-end",
                                "display": "Variant exact start and end"
                            }
                        ]
                    },
                    "valueRange": {
                        "low": {
                            "value": 18141330
                        }
                    }
                }
            ]
        },
        {
            "resourceType": "Observation",
            "id": "dv-2cc6408d22384",
            "meta": {
                "profile": [
                    "http://hl7.org/fhir/uv/genomics-reporting/StructureDefinition/variant"
                ]
            },
            "status": "final",
            "category": [
                {
                    "coding": [
                        {
                            "system": "http://terminology.hl7.org/CodeSystem/observation-category",
                            "code": "laboratory"
                        }
                    ]
                }
            ],
            "code": {
                "coding": [
                    {
                        "system": "http://loinc.org",
                        "code": "69548-6",
                        "display": "Genetic variant assessment"
                    }
                ]
            },
            "subject": {
                "reference": "Patient/NA19138"
            },
            "valueCodeableConcept": {
                "coding": [
                    {
                        "system": "http://loinc.org",
                        "code": "LA9633-4",
                        "display": "present"
                    }
                ]
            },
            "component": [
                {
                    "code": {
                        "coding": [
                            {
                                "system": "http://loinc.org",
                                "code": "62374-4",
                                "display": "Human reference sequence assembly version"
                            }
                        ]
                    },
                    "valueCodeableConcept": {
                        "coding": [
                            {
                                "system": "http://loinc.org",
                                "code": "LA14029-5",
                                "display": "GRCh37"
                            }
                        ]
                    }
                },
                {
                    "code": {
                        "coding": [
                            {
                                "system": "http://loinc.org",
                                "code": "48013-7",
                                "display": "Genomic reference sequence ID"
                            }
                        ]
                    },
                    "valueCodeableConcept": {
                        "coding": [
                            {
                                "system": "http://www.ncbi.nlm.nih.gov/nuccore",
                                "code": "NC_000006.11"
                            }
                        ]
                    }
                },
                {
                    "code": {
                        "coding": [
                            {
                                "system": "http://loinc.org",
                                "code": "53034-5",
                                "display": "Allelic state"
                            }
                        ]
                    },
                    "valueCodeableConcept": {
                        "coding": [
                            {
                                "system": "http://loinc.org",
                                "code": "LA6705-3",
                                "display": "homozygous"
                            }
                        ]
                    }
                },
                {
                    "code": {
                        "coding": [
                            {
                                "system": "http://loinc.org",
                                "code": "69547-8",
                                "display": "Genomic Ref allele [ID]"
                            }
                        ]
                    },
                    "valueString": "A"
                },
                {
                    "code": {
                        "coding": [
                            {
                                "system": "http://loinc.org",
                                "code": "69551-0",
                                "display": "Genomic Alt allele [ID]"
                            }
                        ]
                    },
                    "valueString": "G"
                },
                {
                    "code": {
                        "coding": [
                            {
                                "system": "http://loinc.org",
                                "code": "92822-6",
                                "display": "Genomic coord system"
                            }
                        ]
                    },
                    "valueCodeableConcept": {
                        "coding": [
                            {
                                "system": "http://loinc.org",
                                "code": "LA30102-0",
                                "display": "1-based character counting"
                            }
                        ]
                    }
                },
                {
                    "code": {
                        "coding": [
                            {
                                "system": "http://hl7.org/fhir/uv/genomics-reporting/CodeSystem/tbd-codes",
                                "code": "exact-start-end",
                                "display": "Variant exact start and end"
                            }
                        ]
                    },
                    "valueRange": {
                        "low": {
                            "value": 18142289
                        }
                    }
                }
            ]
        },
        {
            "resourceType": "Observation",
            "id": "dv-080dadccf57e4",
            "meta": {
                "profile": [
                    "http://hl7.org/fhir/uv/genomics-reporting/StructureDefinition/variant"
                ]
            },
            "status": "final",
            "category": [
                {
                    "coding": [
                        {
                            "system": "http://terminology.hl7.org/CodeSystem/observation-category",
                            "code": "laboratory"
                        }
                    ]
                }
            ],
            "code": {
                "coding": [
                    {
                        "system": "http://loinc.org",
                        "code": "69548-6",
                        "display": "Genetic variant assessment"
                    }
                ]
            },
            "subject": {
                "reference": "Patient/NA19138"
            },
            "valueCodeableConcept": {
                "coding": [
                    {
                        "system": "http://loinc.org",
                        "code": "LA9633-4",
                        "display": "present"
                    }
                ]
            },
            "component": [
                {
                    "code": {
                        "coding": [
                            {
                                "system": "http://loinc.org",
                                "code": "62374-4",
                                "display": "Human reference sequence assembly version"
                            }
                        ]
                    },
                    "valueCodeableConcept": {
                        "coding": [
                            {
                                "system": "http://loinc.org",
                                "code": "LA14029-5",
                                "display": "GRCh37"
                            }
                        ]
                    }
                },
                {
                    "code": {
                        "coding": [
                            {
                                "system": "http://loinc.org",
                                "code": "48013-7",
                                "display": "Genomic reference sequence ID"
                            }
                        ]
                    },
                    "valueCodeableConcept": {
                        "coding": [
                            {
                                "system": "http://www.ncbi.nlm.nih.gov/nuccore",
                                "code": "NC_000006.11"
                            }
                        ]
                    }
                },
                {
                    "code": {
                        "coding": [
                            {
                                "system": "http://loinc.org",
                                "code": "53034-5",
                                "display": "Allelic state"
                            }
                        ]
                    },
                    "valueCodeableConcept": {
                        "coding": [
                            {
                                "system": "http://loinc.org",
                                "code": "LA6705-3",
                                "display": "homozygous"
                            }
                        ]
                    }
                },
                {
                    "code": {
                        "coding": [
                            {
                                "system": "http://loinc.org",
                                "code": "69547-8",
                                "display": "Genomic Ref allele [ID]"
                            }
                        ]
                    },
                    "valueString": "A"
                },
                {
                    "code": {
                        "coding": [
                            {
                                "system": "http://loinc.org",
                                "code": "69551-0",
                                "display": "Genomic Alt allele [ID]"
                            }
                        ]
                    },
                    "valueString": "G"
                },
                {
                    "code": {
                        "coding": [
                            {
                                "system": "http://loinc.org",
                                "code": "92822-6",
                                "display": "Genomic coord system"
                            }
                        ]
                    },
                    "valueCodeableConcept": {
                        "coding": [
                            {
                                "system": "http://loinc.org",
                                "code": "LA30102-0",
                                "display": "1-based character counting"
                            }
                        ]
                    }
                },
                {
                    "code": {
                        "coding": [
                            {
                                "system": "http://hl7.org/fhir/uv/genomics-reporting/CodeSystem/tbd-codes",
                                "code": "exact-start-end",
                                "display": "Variant exact start and end"
                            }
                        ]
                    },
                    "valueRange": {
                        "low": {
                            "value": 18142308
                        }
                    }
                }
            ]
        },
        {
            "resourceType": "Observation",
            "id": "dv-6cdf72334c014",
            "meta": {
                "profile": [
                    "http://hl7.org/fhir/uv/genomics-reporting/StructureDefinition/variant"
                ]
            },
            "status": "final",
            "category": [
                {
                    "coding": [
                        {
                            "system": "http://terminology.hl7.org/CodeSystem/observation-category",
                            "code": "laboratory"
                        }
                    ]
                }
            ],
            "code": {
                "coding": [
                    {
                        "system": "http://loinc.org",
                        "code": "69548-6",
                        "display": "Genetic variant assessment"
                    }
                ]
            },
            "subject": {
                "reference": "Patient/NA19138"
            },
            "valueCodeableConcept": {
                "coding": [
                    {
                        "system": "http://loinc.org",
                        "code": "LA9633-4",
                        "display": "present"
                    }
                ]
            },
            "component": [
                {
                    "code": {
                        "coding": [
                            {
                                "system": "http://loinc.org",
                                "code": "62374-4",
                                "display": "Human reference sequence assembly version"
                            }
                        ]
                    },
                    "valueCodeableConcept": {
                        "coding": [
                            {
                                "system": "http://loinc.org",
                                "code": "LA14029-5",
                                "display": "GRCh37"
                            }
                        ]
                    }
                },
                {
                    "code": {
                        "coding": [
                            {
                                "system": "http://loinc.org",
                                "code": "48013-7",
                                "display": "Genomic reference sequence ID"
                            }
                        ]
                    },
                    "valueCodeableConcept": {
                        "coding": [
                            {
                                "system": "http://www.ncbi.nlm.nih.gov/nuccore",
                                "code": "NC_000006.11"
                            }
                        ]
                    }
                },
                {
                    "code": {
                        "coding": [
                            {
                                "system": "http://loinc.org",
                                "code": "53034-5",
                                "display": "Allelic state"
                            }
                        ]
                    },
                    "valueCodeableConcept": {
                        "coding": [
                            {
                                "system": "http://loinc.org",
                                "code": "LA6705-3",
                                "display": "homozygous"
                            }
                        ]
                    }
                },
                {
                    "code": {
                        "coding": [
                            {
                                "system": "http://loinc.org",
                                "code": "69547-8",
                                "display": "Genomic Ref allele [ID]"
                            }
                        ]
                    },
                    "valueString": "A"
                },
                {
                    "code": {
                        "coding": [
                            {
                                "system": "http://loinc.org",
                                "code": "69551-0",
                                "display": "Genomic Alt allele [ID]"
                            }
                        ]
                    },
                    "valueString": "C"
                },
                {
                    "code": {
                        "coding": [
                            {
                                "system": "http://loinc.org",
                                "code": "92822-6",
                                "display": "Genomic coord system"
                            }
                        ]
                    },
                    "valueCodeableConcept": {
                        "coding": [
                            {
                                "system": "http://loinc.org",
                                "code": "LA30102-0",
                                "display": "1-based character counting"
                            }
                        ]
                    }
                },
                {
                    "code": {
                        "coding": [
                            {
                                "system": "http://hl7.org/fhir/uv/genomics-reporting/CodeSystem/tbd-codes",
                                "code": "exact-start-end",
                                "display": "Variant exact start and end"
                            }
                        ]
                    },
                    "valueRange": {
                        "low": {
                            "value": 18142422
                        }
                    }
                }
            ]
        },
        {
            "resourceType": "Observation",
            "id": "dv-db23919943284",
            "meta": {
                "profile": [
                    "http://hl7.org/fhir/uv/genomics-reporting/StructureDefinition/variant"
                ]
            },
            "status": "final",
            "category": [
                {
                    "coding": [
                        {
                            "system": "http://terminology.hl7.org/CodeSystem/observation-category",
                            "code": "laboratory"
                        }
                    ]
                }
            ],
            "code": {
                "coding": [
                    {
                        "system": "http://loinc.org",
                        "code": "69548-6",
                        "display": "Genetic variant assessment"
                    }
                ]
            },
            "subject": {
                "reference": "Patient/NA19138"
            },
            "valueCodeableConcept": {
                "coding": [
                    {
                        "system": "http://loinc.org",
                        "code": "LA9633-4",
                        "display": "present"
                    }
                ]
            },
            "component": [
                {
                    "code": {
                        "coding": [
                            {
                                "system": "http://loinc.org",
                                "code": "62374-4",
                                "display": "Human reference sequence assembly version"
                            }
                        ]
                    },
                    "valueCodeableConcept": {
                        "coding": [
                            {
                                "system": "http://loinc.org",
                                "code": "LA14029-5",
                                "display": "GRCh37"
                            }
                        ]
                    }
                },
                {
                    "code": {
                        "coding": [
                            {
                                "system": "http://loinc.org",
                                "code": "48013-7",
                                "display": "Genomic reference sequence ID"
                            }
                        ]
                    },
                    "valueCodeableConcept": {
                        "coding": [
                            {
                                "system": "http://www.ncbi.nlm.nih.gov/nuccore",
                                "code": "NC_000006.11"
                            }
                        ]
                    }
                },
                {
                    "code": {
                        "coding": [
                            {
                                "system": "http://loinc.org",
                                "code": "53034-5",
                                "display": "Allelic state"
                            }
                        ]
                    },
                    "valueCodeableConcept": {
                        "coding": [
                            {
                                "system": "http://loinc.org",
                                "code": "LA6705-3",
                                "display": "homozygous"
                            }
                        ]
                    }
                },
                {
                    "code": {
                        "coding": [
                            {
                                "system": "http://loinc.org",
                                "code": "69547-8",
                                "display": "Genomic Ref allele [ID]"
                            }
                        ]
                    },
                    "valueString": "T"
                },
                {
                    "code": {
                        "coding": [
                            {
                                "system": "http://loinc.org",
                                "code": "69551-0",
                                "display": "Genomic Alt allele [ID]"
                            }
                        ]
                    },
                    "valueString": "A"
                },
                {
                    "code": {
                        "coding": [
                            {
                                "system": "http://loinc.org",
                                "code": "92822-6",
                                "display": "Genomic coord system"
                            }
                        ]
                    },
                    "valueCodeableConcept": {
                        "coding": [
                            {
                                "system": "http://loinc.org",
                                "code": "LA30102-0",
                                "display": "1-based character counting"
                            }
                        ]
                    }
                },
                {
                    "code": {
                        "coding": [
                            {
                                "system": "http://hl7.org/fhir/uv/genomics-reporting/CodeSystem/tbd-codes",
                                "code": "exact-start-end",
                                "display": "Variant exact start and end"
                            }
                        ]
                    },
                    "valueRange": {
                        "low": {
                            "value": 18142970
                        }
                    }
                }
            ]
        },
        {
            "resourceType": "Observation",
            "id": "dv-da9d30d61e374",
            "meta": {
                "profile": [
                    "http://hl7.org/fhir/uv/genomics-reporting/StructureDefinition/variant"
                ]
            },
            "status": "final",
            "category": [
                {
                    "coding": [
                        {
                            "system": "http://terminology.hl7.org/CodeSystem/observation-category",
                            "code": "laboratory"
                        }
                    ]
                }
            ],
            "code": {
                "coding": [
                    {
                        "system": "http://loinc.org",
                        "code": "69548-6",
                        "display": "Genetic variant assessment"
                    }
                ]
            },
            "subject": {
                "reference": "Patient/NA19138"
            },
            "valueCodeableConcept": {
                "coding": [
                    {
                        "system": "http://loinc.org",
                        "code": "LA9633-4",
                        "display": "present"
                    }
                ]
            },
            "component": [
                {
                    "code": {
                        "coding": [
                            {
                                "system": "http://loinc.org",
                                "code": "62374-4",
                                "display": "Human reference sequence assembly version"
                            }
                        ]
                    },
                    "valueCodeableConcept": {
                        "coding": [
                            {
                                "system": "http://loinc.org",
                                "code": "LA14029-5",
                                "display": "GRCh37"
                            }
                        ]
                    }
                },
                {
                    "code": {
                        "coding": [
                            {
                                "system": "http://loinc.org",
                                "code": "48013-7",
                                "display": "Genomic reference sequence ID"
                            }
                        ]
                    },
                    "valueCodeableConcept": {
                        "coding": [
                            {
                                "system": "http://www.ncbi.nlm.nih.gov/nuccore",
                                "code": "NC_000006.11"
                            }
                        ]
                    }
                },
                {
                    "code": {
                        "coding": [
                            {
                                "system": "http://loinc.org",
                                "code": "53034-5",
                                "display": "Allelic state"
                            }
                        ]
                    },
                    "valueCodeableConcept": {
                        "coding": [
                            {
                                "system": "http://loinc.org",
                                "code": "LA6705-3",
                                "display": "homozygous"
                            }
                        ]
                    }
                },
                {
                    "code": {
                        "coding": [
                            {
                                "system": "http://loinc.org",
                                "code": "69547-8",
                                "display": "Genomic Ref allele [ID]"
                            }
                        ]
                    },
                    "valueString": "A"
                },
                {
                    "code": {
                        "coding": [
                            {
                                "system": "http://loinc.org",
                                "code": "69551-0",
                                "display": "Genomic Alt allele [ID]"
                            }
                        ]
                    },
                    "valueString": "G"
                },
                {
                    "code": {
                        "coding": [
                            {
                                "system": "http://loinc.org",
                                "code": "92822-6",
                                "display": "Genomic coord system"
                            }
                        ]
                    },
                    "valueCodeableConcept": {
                        "coding": [
                            {
                                "system": "http://loinc.org",
                                "code": "LA30102-0",
                                "display": "1-based character counting"
                            }
                        ]
                    }
                },
                {
                    "code": {
                        "coding": [
                            {
                                "system": "http://hl7.org/fhir/uv/genomics-reporting/CodeSystem/tbd-codes",
                                "code": "exact-start-end",
                                "display": "Variant exact start and end"
                            }
                        ]
                    },
                    "valueRange": {
                        "low": {
                            "value": 18143769
                        }
                    }
                }
            ]
        },
        {
            "resourceType": "Observation",
            "id": "dv-c20d692d19e34",
            "meta": {
                "profile": [
                    "http://hl7.org/fhir/uv/genomics-reporting/StructureDefinition/variant"
                ]
            },
            "status": "final",
            "category": [
                {
                    "coding": [
                        {
                            "system": "http://terminology.hl7.org/CodeSystem/observation-category",
                            "code": "laboratory"
                        }
                    ]
                }
            ],
            "code": {
                "coding": [
                    {
                        "system": "http://loinc.org",
                        "code": "69548-6",
                        "display": "Genetic variant assessment"
                    }
                ]
            },
            "subject": {
                "reference": "Patient/NA19138"
            },
            "valueCodeableConcept": {
                "coding": [
                    {
                        "system": "http://loinc.org",
                        "code": "LA9633-4",
                        "display": "present"
                    }
                ]
            },
            "component": [
                {
                    "code": {
                        "coding": [
                            {
                                "system": "http://loinc.org",
                                "code": "62374-4",
                                "display": "Human reference sequence assembly version"
                            }
                        ]
                    },
                    "valueCodeableConcept": {
                        "coding": [
                            {
                                "system": "http://loinc.org",
                                "code": "LA14029-5",
                                "display": "GRCh37"
                            }
                        ]
                    }
                },
                {
                    "code": {
                        "coding": [
                            {
                                "system": "http://loinc.org",
                                "code": "48013-7",
                                "display": "Genomic reference sequence ID"
                            }
                        ]
                    },
                    "valueCodeableConcept": {
                        "coding": [
                            {
                                "system": "http://www.ncbi.nlm.nih.gov/nuccore",
                                "code": "NC_000006.11"
                            }
                        ]
                    }
                },
                {
                    "code": {
                        "coding": [
                            {
                                "system": "http://loinc.org",
                                "code": "53034-5",
                                "display": "Allelic state"
                            }
                        ]
                    },
                    "valueCodeableConcept": {
                        "coding": [
                            {
                                "system": "http://loinc.org",
                                "code": "LA6706-1",
                                "display": "heterozygous"
                            }
                        ]
                    }
                },
                {
                    "code": {
                        "coding": [
                            {
                                "system": "http://loinc.org",
                                "code": "69547-8",
                                "display": "Genomic Ref allele [ID]"
                            }
                        ]
                    },
                    "valueString": "A"
                },
                {
                    "code": {
                        "coding": [
                            {
                                "system": "http://loinc.org",
                                "code": "69551-0",
                                "display": "Genomic Alt allele [ID]"
                            }
                        ]
                    },
                    "valueString": "T"
                },
                {
                    "code": {
                        "coding": [
                            {
                                "system": "http://loinc.org",
                                "code": "92822-6",
                                "display": "Genomic coord system"
                            }
                        ]
                    },
                    "valueCodeableConcept": {
                        "coding": [
                            {
                                "system": "http://loinc.org",
                                "code": "LA30102-0",
                                "display": "1-based character counting"
                            }
                        ]
                    }
                },
                {
                    "code": {
                        "coding": [
                            {
                                "system": "http://hl7.org/fhir/uv/genomics-reporting/CodeSystem/tbd-codes",
                                "code": "exact-start-end",
                                "display": "Variant exact start and end"
                            }
                        ]
                    },
                    "valueRange": {
                        "low": {
                            "value": 18144959
                        }
                    }
                }
            ]
        },
        {
            "resourceType": "Observation",
            "id": "dv-738985aad6744",
            "meta": {
                "profile": [
                    "http://hl7.org/fhir/uv/genomics-reporting/StructureDefinition/variant"
                ]
            },
            "status": "final",
            "category": [
                {
                    "coding": [
                        {
                            "system": "http://terminology.hl7.org/CodeSystem/observation-category",
                            "code": "laboratory"
                        }
                    ]
                }
            ],
            "code": {
                "coding": [
                    {
                        "system": "http://loinc.org",
                        "code": "69548-6",
                        "display": "Genetic variant assessment"
                    }
                ]
            },
            "subject": {
                "reference": "Patient/NA19138"
            },
            "valueCodeableConcept": {
                "coding": [
                    {
                        "system": "http://loinc.org",
                        "code": "LA9633-4",
                        "display": "present"
                    }
                ]
            },
            "component": [
                {
                    "code": {
                        "coding": [
                            {
                                "system": "http://loinc.org",
                                "code": "62374-4",
                                "display": "Human reference sequence assembly version"
                            }
                        ]
                    },
                    "valueCodeableConcept": {
                        "coding": [
                            {
                                "system": "http://loinc.org",
                                "code": "LA14029-5",
                                "display": "GRCh37"
                            }
                        ]
                    }
                },
                {
                    "code": {
                        "coding": [
                            {
                                "system": "http://loinc.org",
                                "code": "48013-7",
                                "display": "Genomic reference sequence ID"
                            }
                        ]
                    },
                    "valueCodeableConcept": {
                        "coding": [
                            {
                                "system": "http://www.ncbi.nlm.nih.gov/nuccore",
                                "code": "NC_000006.11"
                            }
                        ]
                    }
                },
                {
                    "code": {
                        "coding": [
                            {
                                "system": "http://loinc.org",
                                "code": "53034-5",
                                "display": "Allelic state"
                            }
                        ]
                    },
                    "valueCodeableConcept": {
                        "coding": [
                            {
                                "system": "http://loinc.org",
                                "code": "LA6705-3",
                                "display": "homozygous"
                            }
                        ]
                    }
                },
                {
                    "code": {
                        "coding": [
                            {
                                "system": "http://loinc.org",
                                "code": "69547-8",
                                "display": "Genomic Ref allele [ID]"
                            }
                        ]
                    },
                    "valueString": "A"
                },
                {
                    "code": {
                        "coding": [
                            {
                                "system": "http://loinc.org",
                                "code": "69551-0",
                                "display": "Genomic Alt allele [ID]"
                            }
                        ]
                    },
                    "valueString": "T"
                },
                {
                    "code": {
                        "coding": [
                            {
                                "system": "http://loinc.org",
                                "code": "92822-6",
                                "display": "Genomic coord system"
                            }
                        ]
                    },
                    "valueCodeableConcept": {
                        "coding": [
                            {
                                "system": "http://loinc.org",
                                "code": "LA30102-0",
                                "display": "1-based character counting"
                            }
                        ]
                    }
                },
                {
                    "code": {
                        "coding": [
                            {
                                "system": "http://hl7.org/fhir/uv/genomics-reporting/CodeSystem/tbd-codes",
                                "code": "exact-start-end",
                                "display": "Variant exact start and end"
                            }
                        ]
                    },
                    "valueRange": {
                        "low": {
                            "value": 18145372
                        }
                    }
                }
            ]
        },
        {
            "resourceType": "Observation",
            "id": "dv-4137452f5c214",
            "meta": {
                "profile": [
                    "http://hl7.org/fhir/uv/genomics-reporting/StructureDefinition/variant"
                ]
            },
            "status": "final",
            "category": [
                {
                    "coding": [
                        {
                            "system": "http://terminology.hl7.org/CodeSystem/observation-category",
                            "code": "laboratory"
                        }
                    ]
                }
            ],
            "code": {
                "coding": [
                    {
                        "system": "http://loinc.org",
                        "code": "69548-6",
                        "display": "Genetic variant assessment"
                    }
                ]
            },
            "subject": {
                "reference": "Patient/NA19138"
            },
            "valueCodeableConcept": {
                "coding": [
                    {
                        "system": "http://loinc.org",
                        "code": "LA9633-4",
                        "display": "present"
                    }
                ]
            },
            "component": [
                {
                    "code": {
                        "coding": [
                            {
                                "system": "http://loinc.org",
                                "code": "62374-4",
                                "display": "Human reference sequence assembly version"
                            }
                        ]
                    },
                    "valueCodeableConcept": {
                        "coding": [
                            {
                                "system": "http://loinc.org",
                                "code": "LA14029-5",
                                "display": "GRCh37"
                            }
                        ]
                    }
                },
                {
                    "code": {
                        "coding": [
                            {
                                "system": "http://loinc.org",
                                "code": "48013-7",
                                "display": "Genomic reference sequence ID"
                            }
                        ]
                    },
                    "valueCodeableConcept": {
                        "coding": [
                            {
                                "system": "http://www.ncbi.nlm.nih.gov/nuccore",
                                "code": "NC_000006.11"
                            }
                        ]
                    }
                },
                {
                    "code": {
                        "coding": [
                            {
                                "system": "http://loinc.org",
                                "code": "53034-5",
                                "display": "Allelic state"
                            }
                        ]
                    },
                    "valueCodeableConcept": {
                        "coding": [
                            {
                                "system": "http://loinc.org",
                                "code": "LA6705-3",
                                "display": "homozygous"
                            }
                        ]
                    }
                },
                {
                    "code": {
                        "coding": [
                            {
                                "system": "http://loinc.org",
                                "code": "69547-8",
                                "display": "Genomic Ref allele [ID]"
                            }
                        ]
                    },
                    "valueString": "A"
                },
                {
                    "code": {
                        "coding": [
                            {
                                "system": "http://loinc.org",
                                "code": "69551-0",
                                "display": "Genomic Alt allele [ID]"
                            }
                        ]
                    },
                    "valueString": "C"
                },
                {
                    "code": {
                        "coding": [
                            {
                                "system": "http://loinc.org",
                                "code": "92822-6",
                                "display": "Genomic coord system"
                            }
                        ]
                    },
                    "valueCodeableConcept": {
                        "coding": [
                            {
                                "system": "http://loinc.org",
                                "code": "LA30102-0",
                                "display": "1-based character counting"
                            }
                        ]
                    }
                },
                {
                    "code": {
                        "coding": [
                            {
                                "system": "http://hl7.org/fhir/uv/genomics-reporting/CodeSystem/tbd-codes",
                                "code": "exact-start-end",
                                "display": "Variant exact start and end"
                            }
                        ]
                    },
                    "valueRange": {
                        "low": {
                            "value": 18147186
                        }
                    }
                }
            ]
        },
        {
            "resourceType": "Observation",
            "id": "dv-4667e56f81d44",
            "meta": {
                "profile": [
                    "http://hl7.org/fhir/uv/genomics-reporting/StructureDefinition/variant"
                ]
            },
            "status": "final",
            "category": [
                {
                    "coding": [
                        {
                            "system": "http://terminology.hl7.org/CodeSystem/observation-category",
                            "code": "laboratory"
                        }
                    ]
                }
            ],
            "code": {
                "coding": [
                    {
                        "system": "http://loinc.org",
                        "code": "69548-6",
                        "display": "Genetic variant assessment"
                    }
                ]
            },
            "subject": {
                "reference": "Patient/NA19138"
            },
            "valueCodeableConcept": {
                "coding": [
                    {
                        "system": "http://loinc.org",
                        "code": "LA9633-4",
                        "display": "present"
                    }
                ]
            },
            "component": [
                {
                    "code": {
                        "coding": [
                            {
                                "system": "http://loinc.org",
                                "code": "62374-4",
                                "display": "Human reference sequence assembly version"
                            }
                        ]
                    },
                    "valueCodeableConcept": {
                        "coding": [
                            {
                                "system": "http://loinc.org",
                                "code": "LA14029-5",
                                "display": "GRCh37"
                            }
                        ]
                    }
                },
                {
                    "code": {
                        "coding": [
                            {
                                "system": "http://loinc.org",
                                "code": "48013-7",
                                "display": "Genomic reference sequence ID"
                            }
                        ]
                    },
                    "valueCodeableConcept": {
                        "coding": [
                            {
                                "system": "http://www.ncbi.nlm.nih.gov/nuccore",
                                "code": "NC_000006.11"
                            }
                        ]
                    }
                },
                {
                    "code": {
                        "coding": [
                            {
                                "system": "http://loinc.org",
                                "code": "53034-5",
                                "display": "Allelic state"
                            }
                        ]
                    },
                    "valueCodeableConcept": {
                        "coding": [
                            {
                                "system": "http://loinc.org",
                                "code": "LA6705-3",
                                "display": "homozygous"
                            }
                        ]
                    }
                },
                {
                    "code": {
                        "coding": [
                            {
                                "system": "http://loinc.org",
                                "code": "69547-8",
                                "display": "Genomic Ref allele [ID]"
                            }
                        ]
                    },
                    "valueString": "G"
                },
                {
                    "code": {
                        "coding": [
                            {
                                "system": "http://loinc.org",
                                "code": "69551-0",
                                "display": "Genomic Alt allele [ID]"
                            }
                        ]
                    },
                    "valueString": "A"
                },
                {
                    "code": {
                        "coding": [
                            {
                                "system": "http://loinc.org",
                                "code": "92822-6",
                                "display": "Genomic coord system"
                            }
                        ]
                    },
                    "valueCodeableConcept": {
                        "coding": [
                            {
                                "system": "http://loinc.org",
                                "code": "LA30102-0",
                                "display": "1-based character counting"
                            }
                        ]
                    }
                },
                {
                    "code": {
                        "coding": [
                            {
                                "system": "http://hl7.org/fhir/uv/genomics-reporting/CodeSystem/tbd-codes",
                                "code": "exact-start-end",
                                "display": "Variant exact start and end"
                            }
                        ]
                    },
                    "valueRange": {
                        "low": {
                            "value": 18147780
                        }
                    }
                }
            ]
        },
        {
            "resourceType": "Observation",
            "id": "dv-8f61261f7e4d4",
            "meta": {
                "profile": [
                    "http://hl7.org/fhir/uv/genomics-reporting/StructureDefinition/variant"
                ]
            },
            "status": "final",
            "category": [
                {
                    "coding": [
                        {
                            "system": "http://terminology.hl7.org/CodeSystem/observation-category",
                            "code": "laboratory"
                        }
                    ]
                }
            ],
            "code": {
                "coding": [
                    {
                        "system": "http://loinc.org",
                        "code": "69548-6",
                        "display": "Genetic variant assessment"
                    }
                ]
            },
            "subject": {
                "reference": "Patient/NA19138"
            },
            "valueCodeableConcept": {
                "coding": [
                    {
                        "system": "http://loinc.org",
                        "code": "LA9633-4",
                        "display": "present"
                    }
                ]
            },
            "component": [
                {
                    "code": {
                        "coding": [
                            {
                                "system": "http://loinc.org",
                                "code": "62374-4",
                                "display": "Human reference sequence assembly version"
                            }
                        ]
                    },
                    "valueCodeableConcept": {
                        "coding": [
                            {
                                "system": "http://loinc.org",
                                "code": "LA14029-5",
                                "display": "GRCh37"
                            }
                        ]
                    }
                },
                {
                    "code": {
                        "coding": [
                            {
                                "system": "http://loinc.org",
                                "code": "48013-7",
                                "display": "Genomic reference sequence ID"
                            }
                        ]
                    },
                    "valueCodeableConcept": {
                        "coding": [
                            {
                                "system": "http://www.ncbi.nlm.nih.gov/nuccore",
                                "code": "NC_000006.11"
                            }
                        ]
                    }
                },
                {
                    "code": {
                        "coding": [
                            {
                                "system": "http://loinc.org",
                                "code": "53034-5",
                                "display": "Allelic state"
                            }
                        ]
                    },
                    "valueCodeableConcept": {
                        "coding": [
                            {
                                "system": "http://loinc.org",
                                "code": "LA6705-3",
                                "display": "homozygous"
                            }
                        ]
                    }
                },
                {
                    "code": {
                        "coding": [
                            {
                                "system": "http://loinc.org",
                                "code": "69547-8",
                                "display": "Genomic Ref allele [ID]"
                            }
                        ]
                    },
                    "valueString": "G"
                },
                {
                    "code": {
                        "coding": [
                            {
                                "system": "http://loinc.org",
                                "code": "69551-0",
                                "display": "Genomic Alt allele [ID]"
                            }
                        ]
                    },
                    "valueString": "A"
                },
                {
                    "code": {
                        "coding": [
                            {
                                "system": "http://loinc.org",
                                "code": "92822-6",
                                "display": "Genomic coord system"
                            }
                        ]
                    },
                    "valueCodeableConcept": {
                        "coding": [
                            {
                                "system": "http://loinc.org",
                                "code": "LA30102-0",
                                "display": "1-based character counting"
                            }
                        ]
                    }
                },
                {
                    "code": {
                        "coding": [
                            {
                                "system": "http://hl7.org/fhir/uv/genomics-reporting/CodeSystem/tbd-codes",
                                "code": "exact-start-end",
                                "display": "Variant exact start and end"
                            }
                        ]
                    },
                    "valueRange": {
                        "low": {
                            "value": 18148019
                        }
                    }
                }
            ]
        },
        {
            "resourceType": "Observation",
            "id": "dv-6d9ca656d2784",
            "meta": {
                "profile": [
                    "http://hl7.org/fhir/uv/genomics-reporting/StructureDefinition/variant"
                ]
            },
            "status": "final",
            "category": [
                {
                    "coding": [
                        {
                            "system": "http://terminology.hl7.org/CodeSystem/observation-category",
                            "code": "laboratory"
                        }
                    ]
                }
            ],
            "code": {
                "coding": [
                    {
                        "system": "http://loinc.org",
                        "code": "69548-6",
                        "display": "Genetic variant assessment"
                    }
                ]
            },
            "subject": {
                "reference": "Patient/NA19138"
            },
            "valueCodeableConcept": {
                "coding": [
                    {
                        "system": "http://loinc.org",
                        "code": "LA9633-4",
                        "display": "present"
                    }
                ]
            },
            "component": [
                {
                    "code": {
                        "coding": [
                            {
                                "system": "http://loinc.org",
                                "code": "62374-4",
                                "display": "Human reference sequence assembly version"
                            }
                        ]
                    },
                    "valueCodeableConcept": {
                        "coding": [
                            {
                                "system": "http://loinc.org",
                                "code": "LA14029-5",
                                "display": "GRCh37"
                            }
                        ]
                    }
                },
                {
                    "code": {
                        "coding": [
                            {
                                "system": "http://loinc.org",
                                "code": "48013-7",
                                "display": "Genomic reference sequence ID"
                            }
                        ]
                    },
                    "valueCodeableConcept": {
                        "coding": [
                            {
                                "system": "http://www.ncbi.nlm.nih.gov/nuccore",
                                "code": "NC_000006.11"
                            }
                        ]
                    }
                },
                {
                    "code": {
                        "coding": [
                            {
                                "system": "http://loinc.org",
                                "code": "53034-5",
                                "display": "Allelic state"
                            }
                        ]
                    },
                    "valueCodeableConcept": {
                        "coding": [
                            {
                                "system": "http://loinc.org",
                                "code": "LA6705-3",
                                "display": "homozygous"
                            }
                        ]
                    }
                },
                {
                    "code": {
                        "coding": [
                            {
                                "system": "http://loinc.org",
                                "code": "69547-8",
                                "display": "Genomic Ref allele [ID]"
                            }
                        ]
                    },
                    "valueString": "T"
                },
                {
                    "code": {
                        "coding": [
                            {
                                "system": "http://loinc.org",
                                "code": "69551-0",
                                "display": "Genomic Alt allele [ID]"
                            }
                        ]
                    },
                    "valueString": "A"
                },
                {
                    "code": {
                        "coding": [
                            {
                                "system": "http://loinc.org",
                                "code": "92822-6",
                                "display": "Genomic coord system"
                            }
                        ]
                    },
                    "valueCodeableConcept": {
                        "coding": [
                            {
                                "system": "http://loinc.org",
                                "code": "LA30102-0",
                                "display": "1-based character counting"
                            }
                        ]
                    }
                },
                {
                    "code": {
                        "coding": [
                            {
                                "system": "http://hl7.org/fhir/uv/genomics-reporting/CodeSystem/tbd-codes",
                                "code": "exact-start-end",
                                "display": "Variant exact start and end"
                            }
                        ]
                    },
                    "valueRange": {
                        "low": {
                            "value": 18148247
                        }
                    }
                }
            ]
        },
        {
            "resourceType": "Observation",
            "id": "dv-23722a077ca74",
            "meta": {
                "profile": [
                    "http://hl7.org/fhir/uv/genomics-reporting/StructureDefinition/variant"
                ]
            },
            "status": "final",
            "category": [
                {
                    "coding": [
                        {
                            "system": "http://terminology.hl7.org/CodeSystem/observation-category",
                            "code": "laboratory"
                        }
                    ]
                }
            ],
            "code": {
                "coding": [
                    {
                        "system": "http://loinc.org",
                        "code": "69548-6",
                        "display": "Genetic variant assessment"
                    }
                ]
            },
            "subject": {
                "reference": "Patient/NA19138"
            },
            "valueCodeableConcept": {
                "coding": [
                    {
                        "system": "http://loinc.org",
                        "code": "LA9633-4",
                        "display": "present"
                    }
                ]
            },
            "component": [
                {
                    "code": {
                        "coding": [
                            {
                                "system": "http://loinc.org",
                                "code": "62374-4",
                                "display": "Human reference sequence assembly version"
                            }
                        ]
                    },
                    "valueCodeableConcept": {
                        "coding": [
                            {
                                "system": "http://loinc.org",
                                "code": "LA14029-5",
                                "display": "GRCh37"
                            }
                        ]
                    }
                },
                {
                    "code": {
                        "coding": [
                            {
                                "system": "http://loinc.org",
                                "code": "48013-7",
                                "display": "Genomic reference sequence ID"
                            }
                        ]
                    },
                    "valueCodeableConcept": {
                        "coding": [
                            {
                                "system": "http://www.ncbi.nlm.nih.gov/nuccore",
                                "code": "NC_000006.11"
                            }
                        ]
                    }
                },
                {
                    "code": {
                        "coding": [
                            {
                                "system": "http://loinc.org",
                                "code": "53034-5",
                                "display": "Allelic state"
                            }
                        ]
                    },
                    "valueCodeableConcept": {
                        "coding": [
                            {
                                "system": "http://loinc.org",
                                "code": "LA6705-3",
                                "display": "homozygous"
                            }
                        ]
                    }
                },
                {
                    "code": {
                        "coding": [
                            {
                                "system": "http://loinc.org",
                                "code": "69547-8",
                                "display": "Genomic Ref allele [ID]"
                            }
                        ]
                    },
                    "valueString": "G"
                },
                {
                    "code": {
                        "coding": [
                            {
                                "system": "http://loinc.org",
                                "code": "69551-0",
                                "display": "Genomic Alt allele [ID]"
                            }
                        ]
                    },
                    "valueString": "A"
                },
                {
                    "code": {
                        "coding": [
                            {
                                "system": "http://loinc.org",
                                "code": "92822-6",
                                "display": "Genomic coord system"
                            }
                        ]
                    },
                    "valueCodeableConcept": {
                        "coding": [
                            {
                                "system": "http://loinc.org",
                                "code": "LA30102-0",
                                "display": "1-based character counting"
                            }
                        ]
                    }
                },
                {
                    "code": {
                        "coding": [
                            {
                                "system": "http://hl7.org/fhir/uv/genomics-reporting/CodeSystem/tbd-codes",
                                "code": "exact-start-end",
                                "display": "Variant exact start and end"
                            }
                        ]
                    },
                    "valueRange": {
                        "low": {
                            "value": 18148513
                        }
                    }
                }
            ]
        },
        {
            "resourceType": "Observation",
            "id": "dv-7a30a861dc334",
            "meta": {
                "profile": [
                    "http://hl7.org/fhir/uv/genomics-reporting/StructureDefinition/variant"
                ]
            },
            "status": "final",
            "category": [
                {
                    "coding": [
                        {
                            "system": "http://terminology.hl7.org/CodeSystem/observation-category",
                            "code": "laboratory"
                        }
                    ]
                }
            ],
            "code": {
                "coding": [
                    {
                        "system": "http://loinc.org",
                        "code": "69548-6",
                        "display": "Genetic variant assessment"
                    }
                ]
            },
            "subject": {
                "reference": "Patient/NA19138"
            },
            "valueCodeableConcept": {
                "coding": [
                    {
                        "system": "http://loinc.org",
                        "code": "LA9633-4",
                        "display": "present"
                    }
                ]
            },
            "component": [
                {
                    "code": {
                        "coding": [
                            {
                                "system": "http://loinc.org",
                                "code": "62374-4",
                                "display": "Human reference sequence assembly version"
                            }
                        ]
                    },
                    "valueCodeableConcept": {
                        "coding": [
                            {
                                "system": "http://loinc.org",
                                "code": "LA14029-5",
                                "display": "GRCh37"
                            }
                        ]
                    }
                },
                {
                    "code": {
                        "coding": [
                            {
                                "system": "http://loinc.org",
                                "code": "48013-7",
                                "display": "Genomic reference sequence ID"
                            }
                        ]
                    },
                    "valueCodeableConcept": {
                        "coding": [
                            {
                                "system": "http://www.ncbi.nlm.nih.gov/nuccore",
                                "code": "NC_000006.11"
                            }
                        ]
                    }
                },
                {
                    "code": {
                        "coding": [
                            {
                                "system": "http://loinc.org",
                                "code": "53034-5",
                                "display": "Allelic state"
                            }
                        ]
                    },
                    "valueCodeableConcept": {
                        "coding": [
                            {
                                "system": "http://loinc.org",
                                "code": "LA6705-3",
                                "display": "homozygous"
                            }
                        ]
                    }
                },
                {
                    "code": {
                        "coding": [
                            {
                                "system": "http://loinc.org",
                                "code": "69547-8",
                                "display": "Genomic Ref allele [ID]"
                            }
                        ]
                    },
                    "valueString": "C"
                },
                {
                    "code": {
                        "coding": [
                            {
                                "system": "http://loinc.org",
                                "code": "69551-0",
                                "display": "Genomic Alt allele [ID]"
                            }
                        ]
                    },
                    "valueString": "T"
                },
                {
                    "code": {
                        "coding": [
                            {
                                "system": "http://loinc.org",
                                "code": "92822-6",
                                "display": "Genomic coord system"
                            }
                        ]
                    },
                    "valueCodeableConcept": {
                        "coding": [
                            {
                                "system": "http://loinc.org",
                                "code": "LA30102-0",
                                "display": "1-based character counting"
                            }
                        ]
                    }
                },
                {
                    "code": {
                        "coding": [
                            {
                                "system": "http://hl7.org/fhir/uv/genomics-reporting/CodeSystem/tbd-codes",
                                "code": "exact-start-end",
                                "display": "Variant exact start and end"
                            }
                        ]
                    },
                    "valueRange": {
                        "low": {
                            "value": 18149526
                        }
                    }
                }
            ]
        },
        {
            "resourceType": "Observation",
            "id": "dv-663c429260404",
            "meta": {
                "profile": [
                    "http://hl7.org/fhir/uv/genomics-reporting/StructureDefinition/variant"
                ]
            },
            "status": "final",
            "category": [
                {
                    "coding": [
                        {
                            "system": "http://terminology.hl7.org/CodeSystem/observation-category",
                            "code": "laboratory"
                        }
                    ]
                }
            ],
            "code": {
                "coding": [
                    {
                        "system": "http://loinc.org",
                        "code": "69548-6",
                        "display": "Genetic variant assessment"
                    }
                ]
            },
            "subject": {
                "reference": "Patient/NA19138"
            },
            "valueCodeableConcept": {
                "coding": [
                    {
                        "system": "http://loinc.org",
                        "code": "LA9633-4",
                        "display": "present"
                    }
                ]
            },
            "component": [
                {
                    "code": {
                        "coding": [
                            {
                                "system": "http://loinc.org",
                                "code": "62374-4",
                                "display": "Human reference sequence assembly version"
                            }
                        ]
                    },
                    "valueCodeableConcept": {
                        "coding": [
                            {
                                "system": "http://loinc.org",
                                "code": "LA14029-5",
                                "display": "GRCh37"
                            }
                        ]
                    }
                },
                {
                    "code": {
                        "coding": [
                            {
                                "system": "http://loinc.org",
                                "code": "48013-7",
                                "display": "Genomic reference sequence ID"
                            }
                        ]
                    },
                    "valueCodeableConcept": {
                        "coding": [
                            {
                                "system": "http://www.ncbi.nlm.nih.gov/nuccore",
                                "code": "NC_000006.11"
                            }
                        ]
                    }
                },
                {
                    "code": {
                        "coding": [
                            {
                                "system": "http://loinc.org",
                                "code": "53034-5",
                                "display": "Allelic state"
                            }
                        ]
                    },
                    "valueCodeableConcept": {
                        "coding": [
                            {
                                "system": "http://loinc.org",
                                "code": "LA6705-3",
                                "display": "homozygous"
                            }
                        ]
                    }
                },
                {
                    "code": {
                        "coding": [
                            {
                                "system": "http://loinc.org",
                                "code": "69547-8",
                                "display": "Genomic Ref allele [ID]"
                            }
                        ]
                    },
                    "valueString": "C"
                },
                {
                    "code": {
                        "coding": [
                            {
                                "system": "http://loinc.org",
                                "code": "69551-0",
                                "display": "Genomic Alt allele [ID]"
                            }
                        ]
                    },
                    "valueString": "G"
                },
                {
                    "code": {
                        "coding": [
                            {
                                "system": "http://loinc.org",
                                "code": "92822-6",
                                "display": "Genomic coord system"
                            }
                        ]
                    },
                    "valueCodeableConcept": {
                        "coding": [
                            {
                                "system": "http://loinc.org",
                                "code": "LA30102-0",
                                "display": "1-based character counting"
                            }
                        ]
                    }
                },
                {
                    "code": {
                        "coding": [
                            {
                                "system": "http://hl7.org/fhir/uv/genomics-reporting/CodeSystem/tbd-codes",
                                "code": "exact-start-end",
                                "display": "Variant exact start and end"
                            }
                        ]
                    },
                    "valueRange": {
                        "low": {
                            "value": 18150514
                        }
                    }
                }
            ]
        },
        {
            "resourceType": "Observation",
            "id": "dv-5354fd8e7bf14",
            "meta": {
                "profile": [
                    "http://hl7.org/fhir/uv/genomics-reporting/StructureDefinition/variant"
                ]
            },
            "status": "final",
            "category": [
                {
                    "coding": [
                        {
                            "system": "http://terminology.hl7.org/CodeSystem/observation-category",
                            "code": "laboratory"
                        }
                    ]
                }
            ],
            "code": {
                "coding": [
                    {
                        "system": "http://loinc.org",
                        "code": "69548-6",
                        "display": "Genetic variant assessment"
                    }
                ]
            },
            "subject": {
                "reference": "Patient/NA19138"
            },
            "valueCodeableConcept": {
                "coding": [
                    {
                        "system": "http://loinc.org",
                        "code": "LA9633-4",
                        "display": "present"
                    }
                ]
            },
            "component": [
                {
                    "code": {
                        "coding": [
                            {
                                "system": "http://loinc.org",
                                "code": "62374-4",
                                "display": "Human reference sequence assembly version"
                            }
                        ]
                    },
                    "valueCodeableConcept": {
                        "coding": [
                            {
                                "system": "http://loinc.org",
                                "code": "LA14029-5",
                                "display": "GRCh37"
                            }
                        ]
                    }
                },
                {
                    "code": {
                        "coding": [
                            {
                                "system": "http://loinc.org",
                                "code": "48013-7",
                                "display": "Genomic reference sequence ID"
                            }
                        ]
                    },
                    "valueCodeableConcept": {
                        "coding": [
                            {
                                "system": "http://www.ncbi.nlm.nih.gov/nuccore",
                                "code": "NC_000006.11"
                            }
                        ]
                    }
                },
                {
                    "code": {
                        "coding": [
                            {
                                "system": "http://loinc.org",
                                "code": "53034-5",
                                "display": "Allelic state"
                            }
                        ]
                    },
                    "valueCodeableConcept": {
                        "coding": [
                            {
                                "system": "http://loinc.org",
                                "code": "LA6706-1",
                                "display": "heterozygous"
                            }
                        ]
                    }
                },
                {
                    "code": {
                        "coding": [
                            {
                                "system": "http://loinc.org",
                                "code": "69547-8",
                                "display": "Genomic Ref allele [ID]"
                            }
                        ]
                    },
                    "valueString": "CT"
                },
                {
                    "code": {
                        "coding": [
                            {
                                "system": "http://loinc.org",
                                "code": "69551-0",
                                "display": "Genomic Alt allele [ID]"
                            }
                        ]
                    },
                    "valueString": "C"
                },
                {
                    "code": {
                        "coding": [
                            {
                                "system": "http://loinc.org",
                                "code": "92822-6",
                                "display": "Genomic coord system"
                            }
                        ]
                    },
                    "valueCodeableConcept": {
                        "coding": [
                            {
                                "system": "http://loinc.org",
                                "code": "LA30102-0",
                                "display": "1-based character counting"
                            }
                        ]
                    }
                },
                {
                    "code": {
                        "coding": [
                            {
                                "system": "http://hl7.org/fhir/uv/genomics-reporting/CodeSystem/tbd-codes",
                                "code": "exact-start-end",
                                "display": "Variant exact start and end"
                            }
                        ]
                    },
                    "valueRange": {
                        "low": {
                            "value": 18151415
                        }
                    }
                }
            ]
        },
        {
            "resourceType": "Observation",
            "id": "dv-bc21a8bc74f84",
            "meta": {
                "profile": [
                    "http://hl7.org/fhir/uv/genomics-reporting/StructureDefinition/variant"
                ]
            },
            "status": "final",
            "category": [
                {
                    "coding": [
                        {
                            "system": "http://terminology.hl7.org/CodeSystem/observation-category",
                            "code": "laboratory"
                        }
                    ]
                }
            ],
            "code": {
                "coding": [
                    {
                        "system": "http://loinc.org",
                        "code": "69548-6",
                        "display": "Genetic variant assessment"
                    }
                ]
            },
            "subject": {
                "reference": "Patient/NA19138"
            },
            "valueCodeableConcept": {
                "coding": [
                    {
                        "system": "http://loinc.org",
                        "code": "LA9633-4",
                        "display": "present"
                    }
                ]
            },
            "component": [
                {
                    "code": {
                        "coding": [
                            {
                                "system": "http://loinc.org",
                                "code": "62374-4",
                                "display": "Human reference sequence assembly version"
                            }
                        ]
                    },
                    "valueCodeableConcept": {
                        "coding": [
                            {
                                "system": "http://loinc.org",
                                "code": "LA14029-5",
                                "display": "GRCh37"
                            }
                        ]
                    }
                },
                {
                    "code": {
                        "coding": [
                            {
                                "system": "http://loinc.org",
                                "code": "48013-7",
                                "display": "Genomic reference sequence ID"
                            }
                        ]
                    },
                    "valueCodeableConcept": {
                        "coding": [
                            {
                                "system": "http://www.ncbi.nlm.nih.gov/nuccore",
                                "code": "NC_000006.11"
                            }
                        ]
                    }
                },
                {
                    "code": {
                        "coding": [
                            {
                                "system": "http://loinc.org",
                                "code": "53034-5",
                                "display": "Allelic state"
                            }
                        ]
                    },
                    "valueCodeableConcept": {
                        "coding": [
                            {
                                "system": "http://loinc.org",
                                "code": "LA6705-3",
                                "display": "homozygous"
                            }
                        ]
                    }
                },
                {
                    "code": {
                        "coding": [
                            {
                                "system": "http://loinc.org",
                                "code": "69547-8",
                                "display": "Genomic Ref allele [ID]"
                            }
                        ]
                    },
                    "valueString": "A"
                },
                {
                    "code": {
                        "coding": [
                            {
                                "system": "http://loinc.org",
                                "code": "69551-0",
                                "display": "Genomic Alt allele [ID]"
                            }
                        ]
                    },
                    "valueString": "G"
                },
                {
                    "code": {
                        "coding": [
                            {
                                "system": "http://loinc.org",
                                "code": "92822-6",
                                "display": "Genomic coord system"
                            }
                        ]
                    },
                    "valueCodeableConcept": {
                        "coding": [
                            {
                                "system": "http://loinc.org",
                                "code": "LA30102-0",
                                "display": "1-based character counting"
                            }
                        ]
                    }
                },
                {
                    "code": {
                        "coding": [
                            {
                                "system": "http://hl7.org/fhir/uv/genomics-reporting/CodeSystem/tbd-codes",
                                "code": "exact-start-end",
                                "display": "Variant exact start and end"
                            }
                        ]
                    },
                    "valueRange": {
                        "low": {
                            "value": 18153029
                        }
                    }
                }
            ]
        },
        {
            "resourceType": "Observation",
            "id": "dv-b315af7d33634",
            "meta": {
                "profile": [
                    "http://hl7.org/fhir/uv/genomics-reporting/StructureDefinition/variant"
                ]
            },
            "status": "final",
            "category": [
                {
                    "coding": [
                        {
                            "system": "http://terminology.hl7.org/CodeSystem/observation-category",
                            "code": "laboratory"
                        }
                    ]
                }
            ],
            "code": {
                "coding": [
                    {
                        "system": "http://loinc.org",
                        "code": "69548-6",
                        "display": "Genetic variant assessment"
                    }
                ]
            },
            "subject": {
                "reference": "Patient/NA19138"
            },
            "valueCodeableConcept": {
                "coding": [
                    {
                        "system": "http://loinc.org",
                        "code": "LA9633-4",
                        "display": "present"
                    }
                ]
            },
            "component": [
                {
                    "code": {
                        "coding": [
                            {
                                "system": "http://loinc.org",
                                "code": "62374-4",
                                "display": "Human reference sequence assembly version"
                            }
                        ]
                    },
                    "valueCodeableConcept": {
                        "coding": [
                            {
                                "system": "http://loinc.org",
                                "code": "LA14029-5",
                                "display": "GRCh37"
                            }
                        ]
                    }
                },
                {
                    "code": {
                        "coding": [
                            {
                                "system": "http://loinc.org",
                                "code": "48013-7",
                                "display": "Genomic reference sequence ID"
                            }
                        ]
                    },
                    "valueCodeableConcept": {
                        "coding": [
                            {
                                "system": "http://www.ncbi.nlm.nih.gov/nuccore",
                                "code": "NC_000006.11"
                            }
                        ]
                    }
                },
                {
                    "code": {
                        "coding": [
                            {
                                "system": "http://loinc.org",
                                "code": "53034-5",
                                "display": "Allelic state"
                            }
                        ]
                    },
                    "valueCodeableConcept": {
                        "coding": [
                            {
                                "system": "http://loinc.org",
                                "code": "LA6705-3",
                                "display": "homozygous"
                            }
                        ]
                    }
                },
                {
                    "code": {
                        "coding": [
                            {
                                "system": "http://loinc.org",
                                "code": "69547-8",
                                "display": "Genomic Ref allele [ID]"
                            }
                        ]
                    },
                    "valueString": "T"
                },
                {
                    "code": {
                        "coding": [
                            {
                                "system": "http://loinc.org",
                                "code": "69551-0",
                                "display": "Genomic Alt allele [ID]"
                            }
                        ]
                    },
                    "valueString": "A"
                },
                {
                    "code": {
                        "coding": [
                            {
                                "system": "http://loinc.org",
                                "code": "92822-6",
                                "display": "Genomic coord system"
                            }
                        ]
                    },
                    "valueCodeableConcept": {
                        "coding": [
                            {
                                "system": "http://loinc.org",
                                "code": "LA30102-0",
                                "display": "1-based character counting"
                            }
                        ]
                    }
                },
                {
                    "code": {
                        "coding": [
                            {
                                "system": "http://hl7.org/fhir/uv/genomics-reporting/CodeSystem/tbd-codes",
                                "code": "exact-start-end",
                                "display": "Variant exact start and end"
                            }
                        ]
                    },
                    "valueRange": {
                        "low": {
                            "value": 18153330
                        }
                    }
                }
            ]
        },
        {
            "resourceType": "Observation",
            "id": "dv-eebf31892c824",
            "meta": {
                "profile": [
                    "http://hl7.org/fhir/uv/genomics-reporting/StructureDefinition/variant"
                ]
            },
            "status": "final",
            "category": [
                {
                    "coding": [
                        {
                            "system": "http://terminology.hl7.org/CodeSystem/observation-category",
                            "code": "laboratory"
                        }
                    ]
                }
            ],
            "code": {
                "coding": [
                    {
                        "system": "http://loinc.org",
                        "code": "69548-6",
                        "display": "Genetic variant assessment"
                    }
                ]
            },
            "subject": {
                "reference": "Patient/NA19138"
            },
            "valueCodeableConcept": {
                "coding": [
                    {
                        "system": "http://loinc.org",
                        "code": "LA9633-4",
                        "display": "present"
                    }
                ]
            },
            "component": [
                {
                    "code": {
                        "coding": [
                            {
                                "system": "http://loinc.org",
                                "code": "62374-4",
                                "display": "Human reference sequence assembly version"
                            }
                        ]
                    },
                    "valueCodeableConcept": {
                        "coding": [
                            {
                                "system": "http://loinc.org",
                                "code": "LA14029-5",
                                "display": "GRCh37"
                            }
                        ]
                    }
                },
                {
                    "code": {
                        "coding": [
                            {
                                "system": "http://loinc.org",
                                "code": "48013-7",
                                "display": "Genomic reference sequence ID"
                            }
                        ]
                    },
                    "valueCodeableConcept": {
                        "coding": [
                            {
                                "system": "http://www.ncbi.nlm.nih.gov/nuccore",
                                "code": "NC_000006.11"
                            }
                        ]
                    }
                },
                {
                    "code": {
                        "coding": [
                            {
                                "system": "http://loinc.org",
                                "code": "53034-5",
                                "display": "Allelic state"
                            }
                        ]
                    },
                    "valueCodeableConcept": {
                        "coding": [
                            {
                                "system": "http://loinc.org",
                                "code": "LA6705-3",
                                "display": "homozygous"
                            }
                        ]
                    }
                },
                {
                    "code": {
                        "coding": [
                            {
                                "system": "http://loinc.org",
                                "code": "69547-8",
                                "display": "Genomic Ref allele [ID]"
                            }
                        ]
                    },
                    "valueString": "A"
                },
                {
                    "code": {
                        "coding": [
                            {
                                "system": "http://loinc.org",
                                "code": "69551-0",
                                "display": "Genomic Alt allele [ID]"
                            }
                        ]
                    },
                    "valueString": "T"
                },
                {
                    "code": {
                        "coding": [
                            {
                                "system": "http://loinc.org",
                                "code": "92822-6",
                                "display": "Genomic coord system"
                            }
                        ]
                    },
                    "valueCodeableConcept": {
                        "coding": [
                            {
                                "system": "http://loinc.org",
                                "code": "LA30102-0",
                                "display": "1-based character counting"
                            }
                        ]
                    }
                },
                {
                    "code": {
                        "coding": [
                            {
                                "system": "http://hl7.org/fhir/uv/genomics-reporting/CodeSystem/tbd-codes",
                                "code": "exact-start-end",
                                "display": "Variant exact start and end"
                            }
                        ]
                    },
                    "valueRange": {
                        "low": {
                            "value": 18154515
                        }
                    }
                }
            ]
        },
        {
            "resourceType": "Observation",
            "id": "dv-d269cddcf6a84",
            "meta": {
                "profile": [
                    "http://hl7.org/fhir/uv/genomics-reporting/StructureDefinition/variant"
                ]
            },
            "status": "final",
            "category": [
                {
                    "coding": [
                        {
                            "system": "http://terminology.hl7.org/CodeSystem/observation-category",
                            "code": "laboratory"
                        }
                    ]
                }
            ],
            "code": {
                "coding": [
                    {
                        "system": "http://loinc.org",
                        "code": "69548-6",
                        "display": "Genetic variant assessment"
                    }
                ]
            },
            "subject": {
                "reference": "Patient/NA19138"
            },
            "valueCodeableConcept": {
                "coding": [
                    {
                        "system": "http://loinc.org",
                        "code": "LA9633-4",
                        "display": "present"
                    }
                ]
            },
            "component": [
                {
                    "code": {
                        "coding": [
                            {
                                "system": "http://loinc.org",
                                "code": "62374-4",
                                "display": "Human reference sequence assembly version"
                            }
                        ]
                    },
                    "valueCodeableConcept": {
                        "coding": [
                            {
                                "system": "http://loinc.org",
                                "code": "LA14029-5",
                                "display": "GRCh37"
                            }
                        ]
                    }
                },
                {
                    "code": {
                        "coding": [
                            {
                                "system": "http://loinc.org",
                                "code": "48013-7",
                                "display": "Genomic reference sequence ID"
                            }
                        ]
                    },
                    "valueCodeableConcept": {
                        "coding": [
                            {
                                "system": "http://www.ncbi.nlm.nih.gov/nuccore",
                                "code": "NC_000006.11"
                            }
                        ]
                    }
                },
                {
                    "code": {
                        "coding": [
                            {
                                "system": "http://loinc.org",
                                "code": "53034-5",
                                "display": "Allelic state"
                            }
                        ]
                    },
                    "valueCodeableConcept": {
                        "coding": [
                            {
                                "system": "http://loinc.org",
                                "code": "LA6705-3",
                                "display": "homozygous"
                            }
                        ]
                    }
                },
                {
                    "code": {
                        "coding": [
                            {
                                "system": "http://loinc.org",
                                "code": "69547-8",
                                "display": "Genomic Ref allele [ID]"
                            }
                        ]
                    },
                    "valueString": "C"
                },
                {
                    "code": {
                        "coding": [
                            {
                                "system": "http://loinc.org",
                                "code": "69551-0",
                                "display": "Genomic Alt allele [ID]"
                            }
                        ]
                    },
                    "valueString": "T"
                },
                {
                    "code": {
                        "coding": [
                            {
                                "system": "http://loinc.org",
                                "code": "92822-6",
                                "display": "Genomic coord system"
                            }
                        ]
                    },
                    "valueCodeableConcept": {
                        "coding": [
                            {
                                "system": "http://loinc.org",
                                "code": "LA30102-0",
                                "display": "1-based character counting"
                            }
                        ]
                    }
                },
                {
                    "code": {
                        "coding": [
                            {
                                "system": "http://hl7.org/fhir/uv/genomics-reporting/CodeSystem/tbd-codes",
                                "code": "exact-start-end",
                                "display": "Variant exact start and end"
                            }
                        ]
                    },
                    "valueRange": {
                        "low": {
                            "value": 18154895
                        }
                    }
                }
            ]
        },
        {
            "resourceType": "Observation",
            "id": "sid-1f29d146920c4",
            "meta": {
                "profile": [
                    "http://hl7.org/fhir/uv/genomics-reporting/StructureDefinition/sequence-phase-relationship"
                ]
            },
            "status": "final",
            "category": [
                {
                    "coding": [
                        {
                            "system": "http://terminology.hl7.org/CodeSystem/observation-category",
                            "code": "laboratory"
                        }
                    ]
                }
            ],
            "code": {
                "coding": [
                    {
                        "system": "http://loinc.org",
                        "code": "82120-7",
                        "display": "Allelic phase"
                    }
                ]
            },
            "subject": {
                "reference": "Patient/NA19138"
            },
            "valueCodeableConcept": {
                "coding": [
                    {
                        "system": "http://hl7.org/fhir/uv/genomics-reporting/CodeSystem/seq-phase-relationship",
                        "code": "Cis",
                        "display": "Cis"
                    }
                ]
            },
            "derivedFrom": [
                {
                    "reference": "#dv-0c36a26be13c4"
                },
                {
                    "reference": "#dv-039362972e294"
                }
            ]
        },
        {
            "resourceType": "Observation",
            "id": "sid-2ee5ba124ee54",
            "meta": {
                "profile": [
                    "http://hl7.org/fhir/uv/genomics-reporting/StructureDefinition/sequence-phase-relationship"
                ]
            },
            "status": "final",
            "category": [
                {
                    "coding": [
                        {
                            "system": "http://terminology.hl7.org/CodeSystem/observation-category",
                            "code": "laboratory"
                        }
                    ]
                }
            ],
            "code": {
                "coding": [
                    {
                        "system": "http://loinc.org",
                        "code": "82120-7",
                        "display": "Allelic phase"
                    }
                ]
            },
            "subject": {
                "reference": "Patient/NA19138"
            },
            "valueCodeableConcept": {
                "coding": [
                    {
                        "system": "http://hl7.org/fhir/uv/genomics-reporting/CodeSystem/seq-phase-relationship",
                        "code": "Cis",
                        "display": "Cis"
                    }
                ]
            },
            "derivedFrom": [
                {
                    "reference": "#dv-ff4989742f124"
                },
                {
                    "reference": "#dv-7ebe4dd04a8c4"
                }
            ]
        }
    ],
    "status": "final",
    "code": {
        "coding": [
            {
                "system": "http://loinc.org",
                "code": "81247-9",
                "display": "Master HL7 genetic variant reporting panel"
            }
        ]
    },
    "subject": {
        "reference": "Patient/NA19138"
    },
    "issued": "2020-04-27T13:58:17+00:00",
    "result": [
        {
            "reference": "#rs-ab7c3b8704c74"
        },
        {
            "reference": "#dv-65f8db7990244"
        },
        {
            "reference": "#dv-53b5f71ae72f4"
        },
        {
            "reference": "#dv-415cdc1dbdce4"
        },
        {
            "reference": "#dv-7ebb621c94144"
        },
        {
            "reference": "#dv-a5a7d46757e64"
        },
        {
            "reference": "#dv-7a55678623ba4"
        },
        {
            "reference": "#dv-5dd925543d904"
        },
        {
            "reference": "#dv-9549a7390ff24"
        },
        {
            "reference": "#dv-7c4f518044a34"
        },
        {
            "reference": "#dv-d0cc4b1001de4"
        },
        {
            "reference": "#dv-9b964cb83b0a4"
        },
        {
            "reference": "#dv-0c36a26be13c4"
        },
        {
            "reference": "#dv-039362972e294"
        },
        {
            "reference": "#dv-ff4989742f124"
        },
        {
            "reference": "#dv-7ebe4dd04a8c4"
        },
        {
            "reference": "#dv-4e26c4df4a024"
        },
        {
            "reference": "#dv-6ec33f0f98464"
        },
        {
            "reference": "#dv-af3a1f8b92f44"
        },
        {
            "reference": "#dv-2cc6408d22384"
        },
        {
            "reference": "#dv-080dadccf57e4"
        },
        {
            "reference": "#dv-6cdf72334c014"
        },
        {
            "reference": "#dv-db23919943284"
        },
        {
            "reference": "#dv-da9d30d61e374"
        },
        {
            "reference": "#dv-c20d692d19e34"
        },
        {
            "reference": "#dv-738985aad6744"
        },
        {
            "reference": "#dv-4137452f5c214"
        },
        {
            "reference": "#dv-4667e56f81d44"
        },
        {
            "reference": "#dv-8f61261f7e4d4"
        },
        {
            "reference": "#dv-6d9ca656d2784"
        },
        {
            "reference": "#dv-23722a077ca74"
        },
        {
            "reference": "#dv-7a30a861dc334"
        },
        {
            "reference": "#dv-663c429260404"
        },
        {
            "reference": "#dv-5354fd8e7bf14"
        },
        {
            "reference": "#dv-bc21a8bc74f84"
        },
        {
            "reference": "#dv-b315af7d33634"
        },
        {
            "reference": "#dv-eebf31892c824"
        },
        {
            "reference": "#dv-d269cddcf6a84"
        },
        {
            "reference": "#sid-1f29d146920c4"
        },
        {
            "reference": "#sid-2ee5ba124ee54"
        }
    ]
}