{
    "resourceType": "DiagnosticReport",
    "id": "dr-e5d45b6b0f4e4",
    "meta": {
        "profile": [
            "http://hl7.org/fhir/uv/genomics-reporting/StructureDefinition/genomics-report"
        ]
    },
    "contained": [
        {
            "resourceType": "Observation",
            "id": "rs-835c93dd9b464",
            "meta": {
                "profile": [
                    "http://hl7.org/fhir/uv/genomics-reporting/StructureDefinition/region-studied"
                ]
            },
            "status": "final",
            "category": [
                {
                    "coding": [
                        {
                            "system": "http://terminology.hl7.org/CodeSystem/observation-category",
                            "code": "laboratory"
                        }
                    ]
                }
            ],
            "code": {
                "coding": [
                    {
                        "system": "http://loinc.org",
                        "code": "53041-0",
                        "display": "DNA region of interest panel"
                    }
                ]
            },
            "subject": {
                "reference": "Patient/NA19440"
            },
            "component": [
                {
                    "code": {
                        "coding": [
                            {
                                "system": "http://loinc.org",
                                "code": "92822-6",
                                "display": "Genomic coord system"
                            }
                        ]
                    },
                    "valueCodeableConcept": {
                        "coding": [
                            {
                                "system": "http://loinc.org",
                                "code": "LA30102-0",
                                "display": "1-based character counting"
                            }
                        ]
                    }
                },
                {
                    "code": {
                        "coding": [
                            {
                                "system": "http://loinc.org",
                                "code": "48013-7",
                                "display": "Genomic reference sequence ID"
                            }
                        ]
                    },
                    "valueCodeableConcept": {
                        "coding": [
                            {
                                "system": "http://www.ncbi.nlm.nih.gov/nuccore",
                                "code": "NC_000022.10"
                            }
                        ]
                    }
                }
            ]
        },
        {
            "resourceType": "Observation",
            "id": "dv-e5233bc380dc4",
            "meta": {
                "profile": [
                    "http://hl7.org/fhir/uv/genomics-reporting/StructureDefinition/variant"
                ]
            },
            "status": "final",
            "category": [
                {
                    "coding": [
                        {
                            "system": "http://terminology.hl7.org/CodeSystem/observation-category",
                            "code": "laboratory"
                        }
                    ]
                }
            ],
            "code": {
                "coding": [
                    {
                        "system": "http://loinc.org",
                        "code": "69548-6",
                        "display": "Genetic variant assessment"
                    }
                ]
            },
            "subject": {
                "reference": "Patient/NA19440"
            },
            "valueCodeableConcept": {
                "coding": [
                    {
                        "system": "http://loinc.org",
                        "code": "LA9633-4",
                        "display": "present"
                    }
                ]
            },
            "component": [
                {
                    "code": {
                        "coding": [
                            {
                                "system": "http://loinc.org",
                                "code": "62374-4",
                                "display": "Human reference sequence assembly version"
                            }
                        ]
                    },
                    "valueCodeableConcept": {
                        "coding": [
                            {
                                "system": "http://loinc.org",
                                "code": "LA14029-5",
                                "display": "GRCh37"
                            }
                        ]
                    }
                },
                {
                    "code": {
                        "coding": [
                            {
                                "system": "http://loinc.org",
                                "code": "48013-7",
                                "display": "Genomic reference sequence ID"
                            }
                        ]
                    },
                    "valueCodeableConcept": {
                        "coding": [
                            {
                                "system": "http://www.ncbi.nlm.nih.gov/nuccore",
                                "code": "NC_000022.10"
                            }
                        ]
                    }
                },
                {
                    "code": {
                        "coding": [
                            {
                                "system": "http://loinc.org",
                                "code": "53034-5",
                                "display": "Allelic state"
                            }
                        ]
                    },
                    "valueCodeableConcept": {
                        "coding": [
                            {
                                "system": "http://loinc.org",
                                "code": "LA6706-1",
                                "display": "heterozygous"
                            }
                        ]
                    }
                },
                {
                    "code": {
                        "coding": [
                            {
                                "system": "http://loinc.org",
                                "code": "69547-8",
                                "display": "Genomic Ref allele [ID]"
                            }
                        ]
                    },
                    "valueString": "A"
                },
                {
                    "code": {
                        "coding": [
                            {
                                "system": "http://loinc.org",
                                "code": "69551-0",
                                "display": "Genomic Alt allele [ID]"
                            }
                        ]
                    },
                    "valueString": "G"
                },
                {
                    "code": {
                        "coding": [
                            {
                                "system": "http://loinc.org",
                                "code": "92822-6",
                                "display": "Genomic coord system"
                            }
                        ]
                    },
                    "valueCodeableConcept": {
                        "coding": [
                            {
                                "system": "http://loinc.org",
                                "code": "LA30102-0",
                                "display": "1-based character counting"
                            }
                        ]
                    }
                },
                {
                    "code": {
                        "coding": [
                            {
                                "system": "http://hl7.org/fhir/uv/genomics-reporting/CodeSystem/tbd-codes",
                                "code": "exact-start-end",
                                "display": "Variant exact start and end"
                            }
                        ]
                    },
                    "valueRange": {
                        "low": {
                            "value": 42523943
                        }
                    }
                }
            ]
        },
        {
            "resourceType": "Observation",
            "id": "dv-18d5f42cd2934",
            "meta": {
                "profile": [
                    "http://hl7.org/fhir/uv/genomics-reporting/StructureDefinition/variant"
                ]
            },
            "status": "final",
            "category": [
                {
                    "coding": [
                        {
                            "system": "http://terminology.hl7.org/CodeSystem/observation-category",
                            "code": "laboratory"
                        }
                    ]
                }
            ],
            "code": {
                "coding": [
                    {
                        "system": "http://loinc.org",
                        "code": "69548-6",
                        "display": "Genetic variant assessment"
                    }
                ]
            },
            "subject": {
                "reference": "Patient/NA19440"
            },
            "valueCodeableConcept": {
                "coding": [
                    {
                        "system": "http://loinc.org",
                        "code": "LA9633-4",
                        "display": "present"
                    }
                ]
            },
            "component": [
                {
                    "code": {
                        "coding": [
                            {
                                "system": "http://loinc.org",
                                "code": "62374-4",
                                "display": "Human reference sequence assembly version"
                            }
                        ]
                    },
                    "valueCodeableConcept": {
                        "coding": [
                            {
                                "system": "http://loinc.org",
                                "code": "LA14029-5",
                                "display": "GRCh37"
                            }
                        ]
                    }
                },
                {
                    "code": {
                        "coding": [
                            {
                                "system": "http://loinc.org",
                                "code": "48013-7",
                                "display": "Genomic reference sequence ID"
                            }
                        ]
                    },
                    "valueCodeableConcept": {
                        "coding": [
                            {
                                "system": "http://www.ncbi.nlm.nih.gov/nuccore",
                                "code": "NC_000022.10"
                            }
                        ]
                    }
                },
                {
                    "code": {
                        "coding": [
                            {
                                "system": "http://loinc.org",
                                "code": "53034-5",
                                "display": "Allelic state"
                            }
                        ]
                    },
                    "valueCodeableConcept": {
                        "coding": [
                            {
                                "system": "http://loinc.org",
                                "code": "LA6706-1",
                                "display": "heterozygous"
                            }
                        ]
                    }
                },
                {
                    "code": {
                        "coding": [
                            {
                                "system": "http://loinc.org",
                                "code": "69547-8",
                                "display": "Genomic Ref allele [ID]"
                            }
                        ]
                    },
                    "valueString": "T"
                },
                {
                    "code": {
                        "coding": [
                            {
                                "system": "http://loinc.org",
                                "code": "69551-0",
                                "display": "Genomic Alt allele [ID]"
                            }
                        ]
                    },
                    "valueString": "C"
                },
                {
                    "code": {
                        "coding": [
                            {
                                "system": "http://loinc.org",
                                "code": "92822-6",
                                "display": "Genomic coord system"
                            }
                        ]
                    },
                    "valueCodeableConcept": {
                        "coding": [
                            {
                                "system": "http://loinc.org",
                                "code": "LA30102-0",
                                "display": "1-based character counting"
                            }
                        ]
                    }
                },
                {
                    "code": {
                        "coding": [
                            {
                                "system": "http://hl7.org/fhir/uv/genomics-reporting/CodeSystem/tbd-codes",
                                "code": "exact-start-end",
                                "display": "Variant exact start and end"
                            }
                        ]
                    },
                    "valueRange": {
                        "low": {
                            "value": 42524696
                        }
                    }
                }
            ]
        },
        {
            "resourceType": "Observation",
            "id": "dv-4ff2847441a64",
            "meta": {
                "profile": [
                    "http://hl7.org/fhir/uv/genomics-reporting/StructureDefinition/variant"
                ]
            },
            "status": "final",
            "category": [
                {
                    "coding": [
                        {
                            "system": "http://terminology.hl7.org/CodeSystem/observation-category",
                            "code": "laboratory"
                        }
                    ]
                }
            ],
            "code": {
                "coding": [
                    {
                        "system": "http://loinc.org",
                        "code": "69548-6",
                        "display": "Genetic variant assessment"
                    }
                ]
            },
            "subject": {
                "reference": "Patient/NA19440"
            },
            "valueCodeableConcept": {
                "coding": [
                    {
                        "system": "http://loinc.org",
                        "code": "LA9633-4",
                        "display": "present"
                    }
                ]
            },
            "component": [
                {
                    "code": {
                        "coding": [
                            {
                                "system": "http://loinc.org",
                                "code": "62374-4",
                                "display": "Human reference sequence assembly version"
                            }
                        ]
                    },
                    "valueCodeableConcept": {
                        "coding": [
                            {
                                "system": "http://loinc.org",
                                "code": "LA14029-5",
                                "display": "GRCh37"
                            }
                        ]
                    }
                },
                {
                    "code": {
                        "coding": [
                            {
                                "system": "http://loinc.org",
                                "code": "48013-7",
                                "display": "Genomic reference sequence ID"
                            }
                        ]
                    },
                    "valueCodeableConcept": {
                        "coding": [
                            {
                                "system": "http://www.ncbi.nlm.nih.gov/nuccore",
                                "code": "NC_000022.10"
                            }
                        ]
                    }
                },
                {
                    "code": {
                        "coding": [
                            {
                                "system": "http://loinc.org",
                                "code": "53034-5",
                                "display": "Allelic state"
                            }
                        ]
                    },
                    "valueCodeableConcept": {
                        "coding": [
                            {
                                "system": "http://loinc.org",
                                "code": "LA6706-1",
                                "display": "heterozygous"
                            }
                        ]
                    }
                },
                {
                    "code": {
                        "coding": [
                            {
                                "system": "http://loinc.org",
                                "code": "69547-8",
                                "display": "Genomic Ref allele [ID]"
                            }
                        ]
                    },
                    "valueString": "G"
                },
                {
                    "code": {
                        "coding": [
                            {
                                "system": "http://loinc.org",
                                "code": "69551-0",
                                "display": "Genomic Alt allele [ID]"
                            }
                        ]
                    },
                    "valueString": "A"
                },
                {
                    "code": {
                        "coding": [
                            {
                                "system": "http://loinc.org",
                                "code": "92822-6",
                                "display": "Genomic coord system"
                            }
                        ]
                    },
                    "valueCodeableConcept": {
                        "coding": [
                            {
                                "system": "http://loinc.org",
                                "code": "LA30102-0",
                                "display": "1-based character counting"
                            }
                        ]
                    }
                },
                {
                    "code": {
                        "coding": [
                            {
                                "system": "http://hl7.org/fhir/uv/genomics-reporting/CodeSystem/tbd-codes",
                                "code": "exact-start-end",
                                "display": "Variant exact start and end"
                            }
                        ]
                    },
                    "valueRange": {
                        "low": {
                            "value": 42524743
                        }
                    }
                }
            ]
        },
        {
            "resourceType": "Observation",
            "id": "dv-c5bfc8419f1d4",
            "meta": {
                "profile": [
                    "http://hl7.org/fhir/uv/genomics-reporting/StructureDefinition/variant"
                ]
            },
            "status": "final",
            "category": [
                {
                    "coding": [
                        {
                            "system": "http://terminology.hl7.org/CodeSystem/observation-category",
                            "code": "laboratory"
                        }
                    ]
                }
            ],
            "code": {
                "coding": [
                    {
                        "system": "http://loinc.org",
                        "code": "69548-6",
                        "display": "Genetic variant assessment"
                    }
                ]
            },
            "subject": {
                "reference": "Patient/NA19440"
            },
            "valueCodeableConcept": {
                "coding": [
                    {
                        "system": "http://loinc.org",
                        "code": "LA9633-4",
                        "display": "present"
                    }
                ]
            },
            "component": [
                {
                    "code": {
                        "coding": [
                            {
                                "system": "http://loinc.org",
                                "code": "62374-4",
                                "display": "Human reference sequence assembly version"
                            }
                        ]
                    },
                    "valueCodeableConcept": {
                        "coding": [
                            {
                                "system": "http://loinc.org",
                                "code": "LA14029-5",
                                "display": "GRCh37"
                            }
                        ]
                    }
                },
                {
                    "code": {
                        "coding": [
                            {
                                "system": "http://loinc.org",
                                "code": "48013-7",
                                "display": "Genomic reference sequence ID"
                            }
                        ]
                    },
                    "valueCodeableConcept": {
                        "coding": [
                            {
                                "system": "http://www.ncbi.nlm.nih.gov/nuccore",
                                "code": "NC_000022.10"
                            }
                        ]
                    }
                },
                {
                    "code": {
                        "coding": [
                            {
                                "system": "http://loinc.org",
                                "code": "53034-5",
                                "display": "Allelic state"
                            }
                        ]
                    },
                    "valueCodeableConcept": {
                        "coding": [
                            {
                                "system": "http://loinc.org",
                                "code": "LA6706-1",
                                "display": "heterozygous"
                            }
                        ]
                    }
                },
                {
                    "code": {
                        "coding": [
                            {
                                "system": "http://loinc.org",
                                "code": "69547-8",
                                "display": "Genomic Ref allele [ID]"
                            }
                        ]
                    },
                    "valueString": "G"
                },
                {
                    "code": {
                        "coding": [
                            {
                                "system": "http://loinc.org",
                                "code": "69551-0",
                                "display": "Genomic Alt allele [ID]"
                            }
                        ]
                    },
                    "valueString": "A"
                },
                {
                    "code": {
                        "coding": [
                            {
                                "system": "http://loinc.org",
                                "code": "92822-6",
                                "display": "Genomic coord system"
                            }
                        ]
                    },
                    "valueCodeableConcept": {
                        "coding": [
                            {
                                "system": "http://loinc.org",
                                "code": "LA30102-0",
                                "display": "1-based character counting"
                            }
                        ]
                    }
                },
                {
                    "code": {
                        "coding": [
                            {
                                "system": "http://hl7.org/fhir/uv/genomics-reporting/CodeSystem/tbd-codes",
                                "code": "exact-start-end",
                                "display": "Variant exact start and end"
                            }
                        ]
                    },
                    "valueRange": {
                        "low": {
                            "value": 42525756
                        }
                    }
                }
            ]
        },
        {
            "resourceType": "Observation",
            "id": "dv-c07b7e1b71f24",
            "meta": {
                "profile": [
                    "http://hl7.org/fhir/uv/genomics-reporting/StructureDefinition/variant"
                ]
            },
            "status": "final",
            "category": [
                {
                    "coding": [
                        {
                            "system": "http://terminology.hl7.org/CodeSystem/observation-category",
                            "code": "laboratory"
                        }
                    ]
                }
            ],
            "code": {
                "coding": [
                    {
                        "system": "http://loinc.org",
                        "code": "69548-6",
                        "display": "Genetic variant assessment"
                    }
                ]
            },
            "subject": {
                "reference": "Patient/NA19440"
            },
            "valueCodeableConcept": {
                "coding": [
                    {
                        "system": "http://loinc.org",
                        "code": "LA9633-4",
                        "display": "present"
                    }
                ]
            },
            "component": [
                {
                    "code": {
                        "coding": [
                            {
                                "system": "http://loinc.org",
                                "code": "62374-4",
                                "display": "Human reference sequence assembly version"
                            }
                        ]
                    },
                    "valueCodeableConcept": {
                        "coding": [
                            {
                                "system": "http://loinc.org",
                                "code": "LA14029-5",
                                "display": "GRCh37"
                            }
                        ]
                    }
                },
                {
                    "code": {
                        "coding": [
                            {
                                "system": "http://loinc.org",
                                "code": "48013-7",
                                "display": "Genomic reference sequence ID"
                            }
                        ]
                    },
                    "valueCodeableConcept": {
                        "coding": [
                            {
                                "system": "http://www.ncbi.nlm.nih.gov/nuccore",
                                "code": "NC_000022.10"
                            }
                        ]
                    }
                },
                {
                    "code": {
                        "coding": [
                            {
                                "system": "http://loinc.org",
                                "code": "53034-5",
                                "display": "Allelic state"
                            }
                        ]
                    },
                    "valueCodeableConcept": {
                        "coding": [
                            {
                                "system": "http://loinc.org",
                                "code": "LA6706-1",
                                "display": "heterozygous"
                            }
                        ]
                    }
                },
                {
                    "code": {
                        "coding": [
                            {
                                "system": "http://loinc.org",
                                "code": "69547-8",
                                "display": "Genomic Ref allele [ID]"
                            }
                        ]
                    },
                    "valueString": "A"
                },
                {
                    "code": {
                        "coding": [
                            {
                                "system": "http://loinc.org",
                                "code": "69551-0",
                                "display": "Genomic Alt allele [ID]"
                            }
                        ]
                    },
                    "valueString": "C"
                },
                {
                    "code": {
                        "coding": [
                            {
                                "system": "http://loinc.org",
                                "code": "92822-6",
                                "display": "Genomic coord system"
                            }
                        ]
                    },
                    "valueCodeableConcept": {
                        "coding": [
                            {
                                "system": "http://loinc.org",
                                "code": "LA30102-0",
                                "display": "1-based character counting"
                            }
                        ]
                    }
                },
                {
                    "code": {
                        "coding": [
                            {
                                "system": "http://hl7.org/fhir/uv/genomics-reporting/CodeSystem/tbd-codes",
                                "code": "exact-start-end",
                                "display": "Variant exact start and end"
                            }
                        ]
                    },
                    "valueRange": {
                        "low": {
                            "value": 42526484
                        }
                    }
                }
            ]
        },
        {
            "resourceType": "Observation",
            "id": "dv-c8a047dff86d4",
            "meta": {
                "profile": [
                    "http://hl7.org/fhir/uv/genomics-reporting/StructureDefinition/variant"
                ]
            },
            "status": "final",
            "category": [
                {
                    "coding": [
                        {
                            "system": "http://terminology.hl7.org/CodeSystem/observation-category",
                            "code": "laboratory"
                        }
                    ]
                }
            ],
            "code": {
                "coding": [
                    {
                        "system": "http://loinc.org",
                        "code": "69548-6",
                        "display": "Genetic variant assessment"
                    }
                ]
            },
            "subject": {
                "reference": "Patient/NA19440"
            },
            "valueCodeableConcept": {
                "coding": [
                    {
                        "system": "http://loinc.org",
                        "code": "LA9633-4",
                        "display": "present"
                    }
                ]
            },
            "component": [
                {
                    "code": {
                        "coding": [
                            {
                                "system": "http://loinc.org",
                                "code": "62374-4",
                                "display": "Human reference sequence assembly version"
                            }
                        ]
                    },
                    "valueCodeableConcept": {
                        "coding": [
                            {
                                "system": "http://loinc.org",
                                "code": "LA14029-5",
                                "display": "GRCh37"
                            }
                        ]
                    }
                },
                {
                    "code": {
                        "coding": [
                            {
                                "system": "http://loinc.org",
                                "code": "48013-7",
                                "display": "Genomic reference sequence ID"
                            }
                        ]
                    },
                    "valueCodeableConcept": {
                        "coding": [
                            {
                                "system": "http://www.ncbi.nlm.nih.gov/nuccore",
                                "code": "NC_000022.10"
                            }
                        ]
                    }
                },
                {
                    "code": {
                        "coding": [
                            {
                                "system": "http://loinc.org",
                                "code": "53034-5",
                                "display": "Allelic state"
                            }
                        ]
                    },
                    "valueCodeableConcept": {
                        "coding": [
                            {
                                "system": "http://loinc.org",
                                "code": "LA6706-1",
                                "display": "heterozygous"
                            }
                        ]
                    }
                },
                {
                    "code": {
                        "coding": [
                            {
                                "system": "http://loinc.org",
                                "code": "69547-8",
                                "display": "Genomic Ref allele [ID]"
                            }
                        ]
                    },
                    "valueString": "G"
                },
                {
                    "code": {
                        "coding": [
                            {
                                "system": "http://loinc.org",
                                "code": "69551-0",
                                "display": "Genomic Alt allele [ID]"
                            }
                        ]
                    },
                    "valueString": "A"
                },
                {
                    "code": {
                        "coding": [
                            {
                                "system": "http://loinc.org",
                                "code": "92822-6",
                                "display": "Genomic coord system"
                            }
                        ]
                    },
                    "valueCodeableConcept": {
                        "coding": [
                            {
                                "system": "http://loinc.org",
                                "code": "LA30102-0",
                                "display": "1-based character counting"
                            }
                        ]
                    }
                },
                {
                    "code": {
                        "coding": [
                            {
                                "system": "http://hl7.org/fhir/uv/genomics-reporting/CodeSystem/tbd-codes",
                                "code": "exact-start-end",
                                "display": "Variant exact start and end"
                            }
                        ]
                    },
                    "valueRange": {
                        "low": {
                            "value": 42526694
                        }
                    }
                }
            ]
        }
    ],
    "status": "final",
    "code": {
        "coding": [
            {
                "system": "http://loinc.org",
                "code": "81247-9",
                "display": "Master HL7 genetic variant reporting panel"
            }
        ]
    },
    "subject": {
        "reference": "Patient/NA19440"
    },
    "issued": "2020-04-27T14:00:40+00:00",
    "result": [
        {
            "reference": "#rs-835c93dd9b464"
        },
        {
            "reference": "#dv-e5233bc380dc4"
        },
        {
            "reference": "#dv-18d5f42cd2934"
        },
        {
            "reference": "#dv-4ff2847441a64"
        },
        {
            "reference": "#dv-c5bfc8419f1d4"
        },
        {
            "reference": "#dv-c07b7e1b71f24"
        },
        {
            "reference": "#dv-c8a047dff86d4"
        }
    ]
}