{
    "resourceType": "DiagnosticReport",
    "id": "dr-7cb4172075304",
    "meta": {
        "profile": [
            "http://hl7.org/fhir/uv/genomics-reporting/StructureDefinition/genomics-report"
        ]
    },
    "contained": [
        {
            "resourceType": "Observation",
            "id": "rs-3b40178a08214",
            "meta": {
                "profile": [
                    "http://hl7.org/fhir/uv/genomics-reporting/StructureDefinition/region-studied"
                ]
            },
            "status": "final",
            "category": [
                {
                    "coding": [
                        {
                            "system": "http://terminology.hl7.org/CodeSystem/observation-category",
                            "code": "laboratory"
                        }
                    ]
                }
            ],
            "code": {
                "coding": [
                    {
                        "system": "http://loinc.org",
                        "code": "53041-0",
                        "display": "DNA region of interest panel"
                    }
                ]
            },
            "subject": {
                "reference": "Patient/NA19429"
            },
            "component": [
                {
                    "code": {
                        "coding": [
                            {
                                "system": "http://loinc.org",
                                "code": "92822-6",
                                "display": "Genomic coord system"
                            }
                        ]
                    },
                    "valueCodeableConcept": {
                        "coding": [
                            {
                                "system": "http://loinc.org",
                                "code": "LA30102-0",
                                "display": "1-based character counting"
                            }
                        ]
                    }
                },
                {
                    "code": {
                        "coding": [
                            {
                                "system": "http://loinc.org",
                                "code": "48013-7",
                                "display": "Genomic reference sequence ID"
                            }
                        ]
                    },
                    "valueCodeableConcept": {
                        "coding": [
                            {
                                "system": "http://www.ncbi.nlm.nih.gov/nuccore",
                                "code": "NC_000022.10"
                            }
                        ]
                    }
                }
            ]
        },
        {
            "resourceType": "Observation",
            "id": "dv-5923993fe5874",
            "meta": {
                "profile": [
                    "http://hl7.org/fhir/uv/genomics-reporting/StructureDefinition/variant"
                ]
            },
            "status": "final",
            "category": [
                {
                    "coding": [
                        {
                            "system": "http://terminology.hl7.org/CodeSystem/observation-category",
                            "code": "laboratory"
                        }
                    ]
                }
            ],
            "code": {
                "coding": [
                    {
                        "system": "http://loinc.org",
                        "code": "69548-6",
                        "display": "Genetic variant assessment"
                    }
                ]
            },
            "subject": {
                "reference": "Patient/NA19429"
            },
            "valueCodeableConcept": {
                "coding": [
                    {
                        "system": "http://loinc.org",
                        "code": "LA9633-4",
                        "display": "present"
                    }
                ]
            },
            "component": [
                {
                    "code": {
                        "coding": [
                            {
                                "system": "http://loinc.org",
                                "code": "62374-4",
                                "display": "Human reference sequence assembly version"
                            }
                        ]
                    },
                    "valueCodeableConcept": {
                        "coding": [
                            {
                                "system": "http://loinc.org",
                                "code": "LA14029-5",
                                "display": "GRCh37"
                            }
                        ]
                    }
                },
                {
                    "code": {
                        "coding": [
                            {
                                "system": "http://loinc.org",
                                "code": "48013-7",
                                "display": "Genomic reference sequence ID"
                            }
                        ]
                    },
                    "valueCodeableConcept": {
                        "coding": [
                            {
                                "system": "http://www.ncbi.nlm.nih.gov/nuccore",
                                "code": "NC_000022.10"
                            }
                        ]
                    }
                },
                {
                    "code": {
                        "coding": [
                            {
                                "system": "http://loinc.org",
                                "code": "53034-5",
                                "display": "Allelic state"
                            }
                        ]
                    },
                    "valueCodeableConcept": {
                        "coding": [
                            {
                                "system": "http://loinc.org",
                                "code": "LA6706-1",
                                "display": "heterozygous"
                            }
                        ]
                    }
                },
                {
                    "code": {
                        "coding": [
                            {
                                "system": "http://loinc.org",
                                "code": "69547-8",
                                "display": "Genomic Ref allele [ID]"
                            }
                        ]
                    },
                    "valueString": "C"
                },
                {
                    "code": {
                        "coding": [
                            {
                                "system": "http://loinc.org",
                                "code": "69551-0",
                                "display": "Genomic Alt allele [ID]"
                            }
                        ]
                    },
                    "valueString": "T"
                },
                {
                    "code": {
                        "coding": [
                            {
                                "system": "http://loinc.org",
                                "code": "92822-6",
                                "display": "Genomic coord system"
                            }
                        ]
                    },
                    "valueCodeableConcept": {
                        "coding": [
                            {
                                "system": "http://loinc.org",
                                "code": "LA30102-0",
                                "display": "1-based character counting"
                            }
                        ]
                    }
                },
                {
                    "code": {
                        "coding": [
                            {
                                "system": "http://hl7.org/fhir/uv/genomics-reporting/CodeSystem/tbd-codes",
                                "code": "exact-start-end",
                                "display": "Variant exact start and end"
                            }
                        ]
                    },
                    "valueRange": {
                        "low": {
                            "value": 42525565
                        }
                    }
                }
            ]
        },
        {
            "resourceType": "Observation",
            "id": "dv-fbfdcf85cbbd4",
            "meta": {
                "profile": [
                    "http://hl7.org/fhir/uv/genomics-reporting/StructureDefinition/variant"
                ]
            },
            "status": "final",
            "category": [
                {
                    "coding": [
                        {
                            "system": "http://terminology.hl7.org/CodeSystem/observation-category",
                            "code": "laboratory"
                        }
                    ]
                }
            ],
            "code": {
                "coding": [
                    {
                        "system": "http://loinc.org",
                        "code": "69548-6",
                        "display": "Genetic variant assessment"
                    }
                ]
            },
            "subject": {
                "reference": "Patient/NA19429"
            },
            "valueCodeableConcept": {
                "coding": [
                    {
                        "system": "http://loinc.org",
                        "code": "LA9633-4",
                        "display": "present"
                    }
                ]
            },
            "component": [
                {
                    "code": {
                        "coding": [
                            {
                                "system": "http://loinc.org",
                                "code": "62374-4",
                                "display": "Human reference sequence assembly version"
                            }
                        ]
                    },
                    "valueCodeableConcept": {
                        "coding": [
                            {
                                "system": "http://loinc.org",
                                "code": "LA14029-5",
                                "display": "GRCh37"
                            }
                        ]
                    }
                },
                {
                    "code": {
                        "coding": [
                            {
                                "system": "http://loinc.org",
                                "code": "48013-7",
                                "display": "Genomic reference sequence ID"
                            }
                        ]
                    },
                    "valueCodeableConcept": {
                        "coding": [
                            {
                                "system": "http://www.ncbi.nlm.nih.gov/nuccore",
                                "code": "NC_000022.10"
                            }
                        ]
                    }
                },
                {
                    "code": {
                        "coding": [
                            {
                                "system": "http://loinc.org",
                                "code": "53034-5",
                                "display": "Allelic state"
                            }
                        ]
                    },
                    "valueCodeableConcept": {
                        "coding": [
                            {
                                "system": "http://loinc.org",
                                "code": "LA6706-1",
                                "display": "heterozygous"
                            }
                        ]
                    }
                },
                {
                    "code": {
                        "coding": [
                            {
                                "system": "http://loinc.org",
                                "code": "69547-8",
                                "display": "Genomic Ref allele [ID]"
                            }
                        ]
                    },
                    "valueString": "C"
                },
                {
                    "code": {
                        "coding": [
                            {
                                "system": "http://loinc.org",
                                "code": "69551-0",
                                "display": "Genomic Alt allele [ID]"
                            }
                        ]
                    },
                    "valueString": "T"
                },
                {
                    "code": {
                        "coding": [
                            {
                                "system": "http://loinc.org",
                                "code": "92822-6",
                                "display": "Genomic coord system"
                            }
                        ]
                    },
                    "valueCodeableConcept": {
                        "coding": [
                            {
                                "system": "http://loinc.org",
                                "code": "LA30102-0",
                                "display": "1-based character counting"
                            }
                        ]
                    }
                },
                {
                    "code": {
                        "coding": [
                            {
                                "system": "http://hl7.org/fhir/uv/genomics-reporting/CodeSystem/tbd-codes",
                                "code": "exact-start-end",
                                "display": "Variant exact start and end"
                            }
                        ]
                    },
                    "valueRange": {
                        "low": {
                            "value": 42526549
                        }
                    }
                }
            ]
        },
        {
            "resourceType": "Observation",
            "id": "dv-dabadedf12b44",
            "meta": {
                "profile": [
                    "http://hl7.org/fhir/uv/genomics-reporting/StructureDefinition/variant"
                ]
            },
            "status": "final",
            "category": [
                {
                    "coding": [
                        {
                            "system": "http://terminology.hl7.org/CodeSystem/observation-category",
                            "code": "laboratory"
                        }
                    ]
                }
            ],
            "code": {
                "coding": [
                    {
                        "system": "http://loinc.org",
                        "code": "69548-6",
                        "display": "Genetic variant assessment"
                    }
                ]
            },
            "subject": {
                "reference": "Patient/NA19429"
            },
            "valueCodeableConcept": {
                "coding": [
                    {
                        "system": "http://loinc.org",
                        "code": "LA9633-4",
                        "display": "present"
                    }
                ]
            },
            "component": [
                {
                    "code": {
                        "coding": [
                            {
                                "system": "http://loinc.org",
                                "code": "62374-4",
                                "display": "Human reference sequence assembly version"
                            }
                        ]
                    },
                    "valueCodeableConcept": {
                        "coding": [
                            {
                                "system": "http://loinc.org",
                                "code": "LA14029-5",
                                "display": "GRCh37"
                            }
                        ]
                    }
                },
                {
                    "code": {
                        "coding": [
                            {
                                "system": "http://loinc.org",
                                "code": "48013-7",
                                "display": "Genomic reference sequence ID"
                            }
                        ]
                    },
                    "valueCodeableConcept": {
                        "coding": [
                            {
                                "system": "http://www.ncbi.nlm.nih.gov/nuccore",
                                "code": "NC_000022.10"
                            }
                        ]
                    }
                },
                {
                    "code": {
                        "coding": [
                            {
                                "system": "http://loinc.org",
                                "code": "53034-5",
                                "display": "Allelic state"
                            }
                        ]
                    },
                    "valueCodeableConcept": {
                        "coding": [
                            {
                                "system": "http://loinc.org",
                                "code": "LA6706-1",
                                "display": "heterozygous"
                            }
                        ]
                    }
                },
                {
                    "code": {
                        "coding": [
                            {
                                "system": "http://loinc.org",
                                "code": "69547-8",
                                "display": "Genomic Ref allele [ID]"
                            }
                        ]
                    },
                    "valueString": "GG"
                },
                {
                    "code": {
                        "coding": [
                            {
                                "system": "http://loinc.org",
                                "code": "69551-0",
                                "display": "Genomic Alt allele [ID]"
                            }
                        ]
                    },
                    "valueString": "TC"
                },
                {
                    "code": {
                        "coding": [
                            {
                                "system": "http://loinc.org",
                                "code": "92822-6",
                                "display": "Genomic coord system"
                            }
                        ]
                    },
                    "valueCodeableConcept": {
                        "coding": [
                            {
                                "system": "http://loinc.org",
                                "code": "LA30102-0",
                                "display": "1-based character counting"
                            }
                        ]
                    }
                },
                {
                    "code": {
                        "coding": [
                            {
                                "system": "http://hl7.org/fhir/uv/genomics-reporting/CodeSystem/tbd-codes",
                                "code": "exact-start-end",
                                "display": "Variant exact start and end"
                            }
                        ]
                    },
                    "valueRange": {
                        "low": {
                            "value": 42526561
                        }
                    }
                }
            ]
        },
        {
            "resourceType": "Observation",
            "id": "dv-1f6f70b0376a4",
            "meta": {
                "profile": [
                    "http://hl7.org/fhir/uv/genomics-reporting/StructureDefinition/variant"
                ]
            },
            "status": "final",
            "category": [
                {
                    "coding": [
                        {
                            "system": "http://terminology.hl7.org/CodeSystem/observation-category",
                            "code": "laboratory"
                        }
                    ]
                }
            ],
            "code": {
                "coding": [
                    {
                        "system": "http://loinc.org",
                        "code": "69548-6",
                        "display": "Genetic variant assessment"
                    }
                ]
            },
            "subject": {
                "reference": "Patient/NA19429"
            },
            "valueCodeableConcept": {
                "coding": [
                    {
                        "system": "http://loinc.org",
                        "code": "LA9633-4",
                        "display": "present"
                    }
                ]
            },
            "component": [
                {
                    "code": {
                        "coding": [
                            {
                                "system": "http://loinc.org",
                                "code": "62374-4",
                                "display": "Human reference sequence assembly version"
                            }
                        ]
                    },
                    "valueCodeableConcept": {
                        "coding": [
                            {
                                "system": "http://loinc.org",
                                "code": "LA14029-5",
                                "display": "GRCh37"
                            }
                        ]
                    }
                },
                {
                    "code": {
                        "coding": [
                            {
                                "system": "http://loinc.org",
                                "code": "48013-7",
                                "display": "Genomic reference sequence ID"
                            }
                        ]
                    },
                    "valueCodeableConcept": {
                        "coding": [
                            {
                                "system": "http://www.ncbi.nlm.nih.gov/nuccore",
                                "code": "NC_000022.10"
                            }
                        ]
                    }
                },
                {
                    "code": {
                        "coding": [
                            {
                                "system": "http://loinc.org",
                                "code": "53034-5",
                                "display": "Allelic state"
                            }
                        ]
                    },
                    "valueCodeableConcept": {
                        "coding": [
                            {
                                "system": "http://loinc.org",
                                "code": "LA6706-1",
                                "display": "heterozygous"
                            }
                        ]
                    }
                },
                {
                    "code": {
                        "coding": [
                            {
                                "system": "http://loinc.org",
                                "code": "69547-8",
                                "display": "Genomic Ref allele [ID]"
                            }
                        ]
                    },
                    "valueString": "G"
                },
                {
                    "code": {
                        "coding": [
                            {
                                "system": "http://loinc.org",
                                "code": "69551-0",
                                "display": "Genomic Alt allele [ID]"
                            }
                        ]
                    },
                    "valueString": "A"
                },
                {
                    "code": {
                        "coding": [
                            {
                                "system": "http://loinc.org",
                                "code": "92822-6",
                                "display": "Genomic coord system"
                            }
                        ]
                    },
                    "valueCodeableConcept": {
                        "coding": [
                            {
                                "system": "http://loinc.org",
                                "code": "LA30102-0",
                                "display": "1-based character counting"
                            }
                        ]
                    }
                },
                {
                    "code": {
                        "coding": [
                            {
                                "system": "http://hl7.org/fhir/uv/genomics-reporting/CodeSystem/tbd-codes",
                                "code": "exact-start-end",
                                "display": "Variant exact start and end"
                            }
                        ]
                    },
                    "valueRange": {
                        "low": {
                            "value": 42526567
                        }
                    }
                }
            ]
        },
        {
            "resourceType": "Observation",
            "id": "dv-c81afe3f53084",
            "meta": {
                "profile": [
                    "http://hl7.org/fhir/uv/genomics-reporting/StructureDefinition/variant"
                ]
            },
            "status": "final",
            "category": [
                {
                    "coding": [
                        {
                            "system": "http://terminology.hl7.org/CodeSystem/observation-category",
                            "code": "laboratory"
                        }
                    ]
                }
            ],
            "code": {
                "coding": [
                    {
                        "system": "http://loinc.org",
                        "code": "69548-6",
                        "display": "Genetic variant assessment"
                    }
                ]
            },
            "subject": {
                "reference": "Patient/NA19429"
            },
            "valueCodeableConcept": {
                "coding": [
                    {
                        "system": "http://loinc.org",
                        "code": "LA9633-4",
                        "display": "present"
                    }
                ]
            },
            "component": [
                {
                    "code": {
                        "coding": [
                            {
                                "system": "http://loinc.org",
                                "code": "62374-4",
                                "display": "Human reference sequence assembly version"
                            }
                        ]
                    },
                    "valueCodeableConcept": {
                        "coding": [
                            {
                                "system": "http://loinc.org",
                                "code": "LA14029-5",
                                "display": "GRCh37"
                            }
                        ]
                    }
                },
                {
                    "code": {
                        "coding": [
                            {
                                "system": "http://loinc.org",
                                "code": "48013-7",
                                "display": "Genomic reference sequence ID"
                            }
                        ]
                    },
                    "valueCodeableConcept": {
                        "coding": [
                            {
                                "system": "http://www.ncbi.nlm.nih.gov/nuccore",
                                "code": "NC_000022.10"
                            }
                        ]
                    }
                },
                {
                    "code": {
                        "coding": [
                            {
                                "system": "http://loinc.org",
                                "code": "53034-5",
                                "display": "Allelic state"
                            }
                        ]
                    },
                    "valueCodeableConcept": {
                        "coding": [
                            {
                                "system": "http://loinc.org",
                                "code": "LA6706-1",
                                "display": "heterozygous"
                            }
                        ]
                    }
                },
                {
                    "code": {
                        "coding": [
                            {
                                "system": "http://loinc.org",
                                "code": "69547-8",
                                "display": "Genomic Ref allele [ID]"
                            }
                        ]
                    },
                    "valueString": "CAT"
                },
                {
                    "code": {
                        "coding": [
                            {
                                "system": "http://loinc.org",
                                "code": "69551-0",
                                "display": "Genomic Alt allele [ID]"
                            }
                        ]
                    },
                    "valueString": "GAG"
                },
                {
                    "code": {
                        "coding": [
                            {
                                "system": "http://loinc.org",
                                "code": "92822-6",
                                "display": "Genomic coord system"
                            }
                        ]
                    },
                    "valueCodeableConcept": {
                        "coding": [
                            {
                                "system": "http://loinc.org",
                                "code": "LA30102-0",
                                "display": "1-based character counting"
                            }
                        ]
                    }
                },
                {
                    "code": {
                        "coding": [
                            {
                                "system": "http://hl7.org/fhir/uv/genomics-reporting/CodeSystem/tbd-codes",
                                "code": "exact-start-end",
                                "display": "Variant exact start and end"
                            }
                        ]
                    },
                    "valueRange": {
                        "low": {
                            "value": 42526571
                        }
                    }
                }
            ]
        },
        {
            "resourceType": "Observation",
            "id": "dv-0edcf8f33b274",
            "meta": {
                "profile": [
                    "http://hl7.org/fhir/uv/genomics-reporting/StructureDefinition/variant"
                ]
            },
            "status": "final",
            "category": [
                {
                    "coding": [
                        {
                            "system": "http://terminology.hl7.org/CodeSystem/observation-category",
                            "code": "laboratory"
                        }
                    ]
                }
            ],
            "code": {
                "coding": [
                    {
                        "system": "http://loinc.org",
                        "code": "69548-6",
                        "display": "Genetic variant assessment"
                    }
                ]
            },
            "subject": {
                "reference": "Patient/NA19429"
            },
            "valueCodeableConcept": {
                "coding": [
                    {
                        "system": "http://loinc.org",
                        "code": "LA9633-4",
                        "display": "present"
                    }
                ]
            },
            "component": [
                {
                    "code": {
                        "coding": [
                            {
                                "system": "http://loinc.org",
                                "code": "62374-4",
                                "display": "Human reference sequence assembly version"
                            }
                        ]
                    },
                    "valueCodeableConcept": {
                        "coding": [
                            {
                                "system": "http://loinc.org",
                                "code": "LA14029-5",
                                "display": "GRCh37"
                            }
                        ]
                    }
                },
                {
                    "code": {
                        "coding": [
                            {
                                "system": "http://loinc.org",
                                "code": "48013-7",
                                "display": "Genomic reference sequence ID"
                            }
                        ]
                    },
                    "valueCodeableConcept": {
                        "coding": [
                            {
                                "system": "http://www.ncbi.nlm.nih.gov/nuccore",
                                "code": "NC_000022.10"
                            }
                        ]
                    }
                },
                {
                    "code": {
                        "coding": [
                            {
                                "system": "http://loinc.org",
                                "code": "53034-5",
                                "display": "Allelic state"
                            }
                        ]
                    },
                    "valueCodeableConcept": {
                        "coding": [
                            {
                                "system": "http://loinc.org",
                                "code": "LA6706-1",
                                "display": "heterozygous"
                            }
                        ]
                    }
                },
                {
                    "code": {
                        "coding": [
                            {
                                "system": "http://loinc.org",
                                "code": "69547-8",
                                "display": "Genomic Ref allele [ID]"
                            }
                        ]
                    },
                    "valueString": "G"
                },
                {
                    "code": {
                        "coding": [
                            {
                                "system": "http://loinc.org",
                                "code": "69551-0",
                                "display": "Genomic Alt allele [ID]"
                            }
                        ]
                    },
                    "valueString": "C"
                },
                {
                    "code": {
                        "coding": [
                            {
                                "system": "http://loinc.org",
                                "code": "92822-6",
                                "display": "Genomic coord system"
                            }
                        ]
                    },
                    "valueCodeableConcept": {
                        "coding": [
                            {
                                "system": "http://loinc.org",
                                "code": "LA30102-0",
                                "display": "1-based character counting"
                            }
                        ]
                    }
                },
                {
                    "code": {
                        "coding": [
                            {
                                "system": "http://hl7.org/fhir/uv/genomics-reporting/CodeSystem/tbd-codes",
                                "code": "exact-start-end",
                                "display": "Variant exact start and end"
                            }
                        ]
                    },
                    "valueRange": {
                        "low": {
                            "value": 42526580
                        }
                    }
                }
            ]
        },
        {
            "resourceType": "Observation",
            "id": "sid-f52761f3f6194",
            "meta": {
                "profile": [
                    "http://hl7.org/fhir/uv/genomics-reporting/StructureDefinition/sequence-phase-relationship"
                ]
            },
            "status": "final",
            "category": [
                {
                    "coding": [
                        {
                            "system": "http://terminology.hl7.org/CodeSystem/observation-category",
                            "code": "laboratory"
                        }
                    ]
                }
            ],
            "code": {
                "coding": [
                    {
                        "system": "http://loinc.org",
                        "code": "82120-7",
                        "display": "Allelic phase"
                    }
                ]
            },
            "subject": {
                "reference": "Patient/NA19429"
            },
            "valueCodeableConcept": {
                "coding": [
                    {
                        "system": "http://hl7.org/fhir/uv/genomics-reporting/CodeSystem/seq-phase-relationship",
                        "code": "Cis",
                        "display": "Cis"
                    }
                ]
            },
            "derivedFrom": [
                {
                    "reference": "#dv-fbfdcf85cbbd4"
                },
                {
                    "reference": "#dv-dabadedf12b44"
                }
            ]
        },
        {
            "resourceType": "Observation",
            "id": "sid-021201ed93f84",
            "meta": {
                "profile": [
                    "http://hl7.org/fhir/uv/genomics-reporting/StructureDefinition/sequence-phase-relationship"
                ]
            },
            "status": "final",
            "category": [
                {
                    "coding": [
                        {
                            "system": "http://terminology.hl7.org/CodeSystem/observation-category",
                            "code": "laboratory"
                        }
                    ]
                }
            ],
            "code": {
                "coding": [
                    {
                        "system": "http://loinc.org",
                        "code": "82120-7",
                        "display": "Allelic phase"
                    }
                ]
            },
            "subject": {
                "reference": "Patient/NA19429"
            },
            "valueCodeableConcept": {
                "coding": [
                    {
                        "system": "http://hl7.org/fhir/uv/genomics-reporting/CodeSystem/seq-phase-relationship",
                        "code": "Cis",
                        "display": "Cis"
                    }
                ]
            },
            "derivedFrom": [
                {
                    "reference": "#dv-dabadedf12b44"
                },
                {
                    "reference": "#dv-1f6f70b0376a4"
                }
            ]
        },
        {
            "resourceType": "Observation",
            "id": "sid-476c0aa2448e4",
            "meta": {
                "profile": [
                    "http://hl7.org/fhir/uv/genomics-reporting/StructureDefinition/sequence-phase-relationship"
                ]
            },
            "status": "final",
            "category": [
                {
                    "coding": [
                        {
                            "system": "http://terminology.hl7.org/CodeSystem/observation-category",
                            "code": "laboratory"
                        }
                    ]
                }
            ],
            "code": {
                "coding": [
                    {
                        "system": "http://loinc.org",
                        "code": "82120-7",
                        "display": "Allelic phase"
                    }
                ]
            },
            "subject": {
                "reference": "Patient/NA19429"
            },
            "valueCodeableConcept": {
                "coding": [
                    {
                        "system": "http://hl7.org/fhir/uv/genomics-reporting/CodeSystem/seq-phase-relationship",
                        "code": "Cis",
                        "display": "Cis"
                    }
                ]
            },
            "derivedFrom": [
                {
                    "reference": "#dv-1f6f70b0376a4"
                },
                {
                    "reference": "#dv-c81afe3f53084"
                }
            ]
        },
        {
            "resourceType": "Observation",
            "id": "sid-4d53f0f826144",
            "meta": {
                "profile": [
                    "http://hl7.org/fhir/uv/genomics-reporting/StructureDefinition/sequence-phase-relationship"
                ]
            },
            "status": "final",
            "category": [
                {
                    "coding": [
                        {
                            "system": "http://terminology.hl7.org/CodeSystem/observation-category",
                            "code": "laboratory"
                        }
                    ]
                }
            ],
            "code": {
                "coding": [
                    {
                        "system": "http://loinc.org",
                        "code": "82120-7",
                        "display": "Allelic phase"
                    }
                ]
            },
            "subject": {
                "reference": "Patient/NA19429"
            },
            "valueCodeableConcept": {
                "coding": [
                    {
                        "system": "http://hl7.org/fhir/uv/genomics-reporting/CodeSystem/seq-phase-relationship",
                        "code": "Cis",
                        "display": "Cis"
                    }
                ]
            },
            "derivedFrom": [
                {
                    "reference": "#dv-c81afe3f53084"
                },
                {
                    "reference": "#dv-0edcf8f33b274"
                }
            ]
        }
    ],
    "status": "final",
    "code": {
        "coding": [
            {
                "system": "http://loinc.org",
                "code": "81247-9",
                "display": "Master HL7 genetic variant reporting panel"
            }
        ]
    },
    "subject": {
        "reference": "Patient/NA19429"
    },
    "issued": "2020-04-27T13:59:49+00:00",
    "result": [
        {
            "reference": "#rs-3b40178a08214"
        },
        {
            "reference": "#dv-5923993fe5874"
        },
        {
            "reference": "#dv-fbfdcf85cbbd4"
        },
        {
            "reference": "#dv-dabadedf12b44"
        },
        {
            "reference": "#dv-1f6f70b0376a4"
        },
        {
            "reference": "#dv-c81afe3f53084"
        },
        {
            "reference": "#dv-0edcf8f33b274"
        },
        {
            "reference": "#sid-f52761f3f6194"
        },
        {
            "reference": "#sid-021201ed93f84"
        },
        {
            "reference": "#sid-476c0aa2448e4"
        },
        {
            "reference": "#sid-4d53f0f826144"
        }
    ]
}