{
    "resourceType": "DiagnosticReport",
    "id": "dr-5c7e9ec7d99d6",
    "meta": {
        "profile": [
            "http://hl7.org/fhir/uv/genomics-reporting/StructureDefinition/diagnosticreport"
        ]
    },
    "contained": [
        {
            "resourceType": "Observation",
            "id": "rs-5c7e9ec7d9934",
            "meta": {
                "profile": [
                    "http://hl7.org/fhir/uv/genomics-reporting/StructureDefinition/obs-region-studied"
                ]
            },
            "status": "final",
            "category": {
                "coding": [
                    {
                        "system": "http://terminology.hl7.org/CodeSystem/observation-category",
                        "code": "laboratory"
                    }
                ]
            },
            "code": {
                "coding": [
                    {
                        "system": "http://loinc.org",
                        "code": "TBD-RegionsStudied",
                        "display": "Region studied"
                    }
                ]
            },
            "subject": {
                "reference": "Patient/HG00628"
            },
            "issued": "2019-03-05T16:07:35+00:00",
            "valueCodeableConcept": {
                "coding": [
                    {
                        "system": "http://loinc.org",
                        "code": "LA9633-4",
                        "display": "Present"
                    }
                ]
            },
            "component": [
                {
                    "code": {
                        "coding": [
                            {
                                "system": "http://loinc.org",
                                "code": "48018-6",
                                "display": "Gene studied ID"
                            }
                        ]
                    },
                    "valueCodeableConcept": {
                        "coding": [
                            {
                                "system": "http://www.genenames.org",
                                "code": "HGNC:2625",
                                "display": "CYP2D6"
                            }
                        ]
                    }
                }
            ]
        },
        {
            "resourceType": "Observation",
            "id": "dv-5c7e9ec7d9a1e",
            "meta": {
                "profile": [
                    "http://hl7.org/fhir/uv/genomics-reporting/StructureDefinition/obs-described-variant"
                ]
            },
            "status": "final",
            "category": {
                "coding": [
                    {
                        "system": "http://terminology.hl7.org/CodeSystem/observation-category",
                        "code": "laboratory"
                    }
                ]
            },
            "code": {
                "coding": [
                    {
                        "system": "http://loinc.org",
                        "code": "TBD-Described",
                        "display": "Genetic variant assessment"
                    }
                ]
            },
            "subject": {
                "reference": "Patient/HG00628"
            },
            "issued": "2019-03-05T16:07:35+00:00",
            "valueCodeableConcept": {
                "coding": [
                    {
                        "system": "http://loinc.org",
                        "code": "LA9633-4",
                        "display": "Present"
                    }
                ]
            },
            "component": [
                {
                    "code": {
                        "coding": [
                            {
                                "system": "http://loinc.org",
                                "code": "62374-4",
                                "display": "Human reference sequence assembly version"
                            }
                        ]
                    },
                    "valueCodeableConcept": {
                        "coding": [
                            {
                                "system": "http://loinc.org",
                                "code": "LA14029-5",
                                "display": "GRCh37"
                            }
                        ]
                    }
                },
                {
                    "code": {
                        "coding": [
                            {
                                "system": "http://loinc.org",
                                "code": "48013-7",
                                "display": "Genomic reference sequence ID"
                            }
                        ]
                    },
                    "valueCodeableConcept": {
                        "coding": [
                            {
                                "system": "http://www.ncbi.nlm.nih.gov/nuccore",
                                "code": "NC_000022.10"
                            }
                        ]
                    }
                },
                {
                    "code": {
                        "coding": [
                            {
                                "system": "http://loinc.org",
                                "code": "53034-5",
                                "display": "Allelic state"
                            }
                        ]
                    },
                    "valueCodeableConcept": {
                        "coding": [
                            {
                                "system": "http://loinc.org",
                                "code": "LA6706-1",
                                "display": "heterozygous"
                            }
                        ]
                    }
                },
                {
                    "code": {
                        "coding": [
                            {
                                "system": "http://loinc.org",
                                "code": "69547-8",
                                "display": "Genomic Ref allele"
                            }
                        ]
                    },
                    "valueString": "C"
                },
                {
                    "code": {
                        "coding": [
                            {
                                "system": "http://loinc.org",
                                "code": "69551-0",
                                "display": "Genomic Alt allele"
                            }
                        ]
                    },
                    "valueString": "T"
                },
                {
                    "code": {
                        "coding": [
                            {
                                "system": "http://loinc.org",
                                "code": "tbd-coordinate system",
                                "display": "Genomic coordinate system"
                            }
                        ]
                    },
                    "valueCodeableConcept": {
                        "coding": [
                            {
                                "system": "http://hl7.org/fhir/uv/genomics-reporting/CodeSystem/genetic-coordinate-system",
                                "code": "1"
                            }
                        ]
                    }
                },
                {
                    "code": {
                        "coding": [
                            {
                                "system": "http://loinc.org",
                                "code": "81254-5",
                                "display": "Genomic Allele start-end"
                            }
                        ]
                    },
                    "valueRange": {
                        "low": {
                            "value": 42523805
                        }
                    }
                }
            ]
        }
    ],
    "status": "final",
    "code": {
        "coding": [
            {
                "system": "http://loinc.org",
                "code": "51969-4"
            }
        ],
        "text": "Genetic analysis report"
    },
    "subject": {
        "reference": "Patient/HG00628"
    },
    "result": [
        {
            "reference": "#rs-5c7e9ec7d9934"
        },
        {
            "reference": "#dv-5c7e9ec7d9a1e"
        }
    ]
}