{"resourceType": "DiagnosticReport", "id": "dr-eafe3bd3da9e4", "meta": {"profile": ["http://hl7.org/fhir/uv/genomics-reporting/StructureDefinition/genomics-report"]}, "contained": [{"resourceType": "Observation", "id": "rs-f57ccefd7dc04", "meta": {"profile": ["http://hl7.org/fhir/uv/genomics-reporting/StructureDefinition/region-studied"]}, "status": "final", "category": [{"coding": [{"system": "http://terminology.hl7.org/CodeSystem/observation-category", "code": "laboratory"}]}], "code": {"coding": [{"system": "http://loinc.org", "code": "53041-0", "display": "DNA region of interest panel"}]}, "subject": {"reference": "Patient/a"}, "component": [{"code": {"coding": [{"system": "http://loinc.org", "code": "51959-5", "display": "Range(s) of DNA sequence examined"}]}}, {"code": {"coding": [{"system": "http://loinc.org", "code": "92822-6", "display": "Genomic coord system"}]}, "valueCodeableConcept": {"coding": [{"system": "http://loinc.org", "code": "LA30102-0", "display": "1-based character counting"}]}}, {"code": {"coding": [{"system": "http://loinc.org", "code": "48013-7", "display": "Genomic reference sequence ID"}]}, "valueCodeableConcept": {"coding": [{"system": "http://www.ncbi.nlm.nih.gov/nuccore", "code": "m"}]}}]}, {"resourceType": "Observation", "id": "dv-b220c02548984", "meta": {"profile": ["http://hl7.org/fhir/uv/genomics-reporting/StructureDefinition/variant"]}, "status": "final", "category": [{"coding": [{"system": "http://terminology.hl7.org/CodeSystem/observation-category", "code": "laboratory"}]}], "code": {"coding": [{"system": "http://loinc.org", "code": "69548-6", "display": "Genetic variant assessment"}]}, "subject": {"reference": "Patient/a"}, "valueCodeableConcept": {"coding": [{"system": "http://loinc.org", "code": "LA9633-4", "display": "present"}]}, "component": [{"code": {"coding": [{"system": "http://loinc.org", "code": "62374-4", "display": "Human reference sequence assembly version"}]}, "valueCodeableConcept": {"coding": [{"system": "http://loinc.org", "code": "LA14029-5", "display": "GRCh37"}]}}, {"code": {"coding": [{"system": "http://loinc.org", "code": "48013-7", "display": "Genomic reference sequence ID"}]}, "valueCodeableConcept": {"coding": [{"system": "http://www.ncbi.nlm.nih.gov/nuccore", "code": "m"}]}}, {"code": {"coding": [{"system": "http://loinc.org", "code": "53034-5", "display": "Allelic state"}]}, "valueCodeableConcept": {"coding": [{"system": "http://loinc.org", "code": "LA6707-9", "display": "hemizygous"}]}}, {"code": {"coding": [{"system": "http://loinc.org", "code": "69547-8", "display": "Genomic Ref allele [ID]"}]}, "valueString": "A"}, {"code": {"coding": [{"system": "http://loinc.org", "code": "69551-0", "display": "Genomic Alt allele [ID]"}]}, "valueString": "T"}, {"code": {"coding": [{"system": "http://loinc.org", "code": "92822-6", "display": "Genomic coord system"}]}, "valueCodeableConcept": {"coding": [{"system": "http://loinc.org", "code": "LA30102-0", "display": "1-based character counting"}]}}, {"code": {"coding": [{"system": "http://hl7.org/fhir/uv/genomics-reporting/CodeSystem/tbd-codes", "code": "exact-start-end", "display": "Variant exact start and end"}]}}]}, {"resourceType": "Observation", "id": "dv-437e21e8a62e4", "meta": {"profile": ["http://hl7.org/fhir/uv/genomics-reporting/StructureDefinition/variant"]}, "status": "final", "category": [{"coding": [{"system": "http://terminology.hl7.org/CodeSystem/observation-category", "code": "laboratory"}]}], "code": {"coding": [{"system": "http://loinc.org", "code": "69548-6", "display": "Genetic variant assessment"}]}, "subject": {"reference": "Patient/a"}, "valueCodeableConcept": {"coding": [{"system": "http://loinc.org", "code": "LA9633-4", "display": "present"}]}, "component": [{"code": {"coding": [{"system": "http://loinc.org", "code": "62374-4", "display": "Human reference sequence assembly version"}]}, "valueCodeableConcept": {"coding": [{"system": "http://loinc.org", "code": "LA14029-5", "display": "GRCh37"}]}}, {"code": {"coding": [{"system": "http://loinc.org", "code": "48013-7", "display": "Genomic reference sequence ID"}]}, "valueCodeableConcept": {"coding": [{"system": "http://www.ncbi.nlm.nih.gov/nuccore", "code": "m"}]}}, {"code": {"coding": [{"system": "http://loinc.org", "code": "53034-5", "display": "Allelic state"}]}, "valueCodeableConcept": {"coding": [{"system": "http://loinc.org", "code": "LA6707-9", "display": "hemizygous"}]}}, {"code": {"coding": [{"system": "http://loinc.org", "code": "69547-8", "display": "Genomic Ref allele [ID]"}]}, "valueString": "A"}, {"code": {"coding": [{"system": "http://loinc.org", "code": "69551-0", "display": "Genomic Alt allele [ID]"}]}, "valueString": "T"}, {"code": {"coding": [{"system": "http://loinc.org", "code": "92822-6", "display": "Genomic coord system"}]}, "valueCodeableConcept": {"coding": [{"system": "http://loinc.org", "code": "LA30102-0", "display": "1-based character counting"}]}}, {"code": {"coding": [{"system": "http://hl7.org/fhir/uv/genomics-reporting/CodeSystem/tbd-codes", "code": "exact-start-end", "display": "Variant exact start and end"}]}}]}, {"resourceType": "Observation", "id": "dv-52dbb7e3ba804", "meta": {"profile": ["http://hl7.org/fhir/uv/genomics-reporting/StructureDefinition/variant"]}, "status": "final", "category": [{"coding": [{"system": "http://terminology.hl7.org/CodeSystem/observation-category", "code": "laboratory"}]}], "code": {"coding": [{"system": "http://loinc.org", "code": "69548-6", "display": "Genetic variant assessment"}]}, "subject": {"reference": "Patient/a"}, "valueCodeableConcept": {"coding": [{"system": "http://loinc.org", "code": "LA9633-4", "display": "present"}]}, "component": [{"code": {"coding": [{"system": "http://loinc.org", "code": "62374-4", "display": "Human reference sequence assembly version"}]}, "valueCodeableConcept": {"coding": [{"system": "http://loinc.org", "code": "LA14029-5", "display": "GRCh37"}]}}, {"code": {"coding": [{"system": "http://loinc.org", "code": "48013-7", "display": "Genomic reference sequence ID"}]}, "valueCodeableConcept": {"coding": [{"system": "http://www.ncbi.nlm.nih.gov/nuccore", "code": "m"}]}}, {"code": {"coding": [{"system": "http://loinc.org", "code": "53034-5", "display": "Allelic state"}]}, "valueCodeableConcept": {"coding": [{"system": "http://loinc.org", "code": "LA6707-9", "display": "hemizygous"}]}}, {"code": {"coding": [{"system": "http://loinc.org", "code": "69547-8", "display": "Genomic Ref allele [ID]"}]}, "valueString": "A"}, {"code": {"coding": [{"system": "http://loinc.org", "code": "69551-0", "display": "Genomic Alt allele [ID]"}]}, "valueString": "T"}, {"code": {"coding": [{"system": "http://loinc.org", "code": "92822-6", "display": "Genomic coord system"}]}, "valueCodeableConcept": {"coding": [{"system": "http://loinc.org", "code": "LA30102-0", "display": "1-based character counting"}]}}, {"code": {"coding": [{"system": "http://hl7.org/fhir/uv/genomics-reporting/CodeSystem/tbd-codes", "code": "exact-start-end", "display": "Variant exact start and end"}]}}]}, {"resourceType": "Observation", "id": "dv-bef89674cc704", "meta": {"profile": ["http://hl7.org/fhir/uv/genomics-reporting/StructureDefinition/variant"]}, "status": "final", "category": [{"coding": [{"system": "http://terminology.hl7.org/CodeSystem/observation-category", "code": "laboratory"}]}], "code": {"coding": [{"system": "http://loinc.org", "code": "69548-6", "display": "Genetic variant assessment"}]}, "subject": {"reference": "Patient/a"}, "valueCodeableConcept": {"coding": [{"system": "http://loinc.org", "code": "LA9633-4", "display": "present"}]}, "component": [{"code": {"coding": [{"system": "http://loinc.org", "code": "62374-4", "display": "Human reference sequence assembly version"}]}, "valueCodeableConcept": {"coding": [{"system": "http://loinc.org", "code": "LA14029-5", "display": "GRCh37"}]}}, {"code": {"coding": [{"system": "http://loinc.org", "code": "48013-7", "display": "Genomic reference sequence ID"}]}, "valueCodeableConcept": {"coding": [{"system": "http://www.ncbi.nlm.nih.gov/nuccore", "code": "m"}]}}, {"code": {"coding": [{"system": "http://loinc.org", "code": "53034-5", "display": "Allelic state"}]}, "valueCodeableConcept": {"coding": [{"system": "http://loinc.org", "code": "LA6707-9", "display": "hemizygous"}]}}, {"code": {"coding": [{"system": "http://loinc.org", "code": "69547-8", "display": "Genomic Ref allele [ID]"}]}, "valueString": "A"}, {"code": {"coding": [{"system": "http://loinc.org", "code": "69551-0", "display": "Genomic Alt allele [ID]"}]}, "valueString": "T"}, {"code": {"coding": [{"system": "http://loinc.org", "code": "92822-6", "display": "Genomic coord system"}]}, "valueCodeableConcept": {"coding": [{"system": "http://loinc.org", "code": "LA30102-0", "display": "1-based character counting"}]}}, {"code": {"coding": [{"system": "http://hl7.org/fhir/uv/genomics-reporting/CodeSystem/tbd-codes", "code": "exact-start-end", "display": "Variant exact start and end"}]}}]}, {"resourceType": "Observation", "id": "dv-34cc5dfeeb6b4", "meta": {"profile": ["http://hl7.org/fhir/uv/genomics-reporting/StructureDefinition/variant"]}, "status": "final", "category": [{"coding": [{"system": "http://terminology.hl7.org/CodeSystem/observation-category", "code": "laboratory"}]}], "code": {"coding": [{"system": "http://loinc.org", "code": "69548-6", "display": "Genetic variant assessment"}]}, "subject": {"reference": "Patient/a"}, "valueCodeableConcept": {"coding": [{"system": "http://loinc.org", "code": "LA9633-4", "display": "present"}]}, "component": [{"code": {"coding": [{"system": "http://loinc.org", "code": "62374-4", "display": "Human reference sequence assembly version"}]}, "valueCodeableConcept": {"coding": [{"system": "http://loinc.org", "code": "LA14029-5", "display": "GRCh37"}]}}, {"code": {"coding": [{"system": "http://loinc.org", "code": "48013-7", "display": "Genomic reference sequence ID"}]}, "valueCodeableConcept": {"coding": [{"system": "http://www.ncbi.nlm.nih.gov/nuccore", "code": "m"}]}}, {"code": {"coding": [{"system": "http://loinc.org", "code": "53034-5", "display": "Allelic state"}]}, "valueCodeableConcept": {"coding": [{"system": "http://loinc.org", "code": "LA6707-9", "display": "hemizygous"}]}}, {"code": {"coding": [{"system": "http://loinc.org", "code": "69547-8", "display": "Genomic Ref allele [ID]"}]}, "valueString": "A"}, {"code": {"coding": [{"system": "http://loinc.org", "code": "69551-0", "display": "Genomic Alt allele [ID]"}]}, "valueString": "T"}, {"code": {"coding": [{"system": "http://loinc.org", "code": "92822-6", "display": "Genomic coord system"}]}, "valueCodeableConcept": {"coding": [{"system": "http://loinc.org", "code": "LA30102-0", "display": "1-based character counting"}]}}, {"code": {"coding": [{"system": "http://hl7.org/fhir/uv/genomics-reporting/CodeSystem/tbd-codes", "code": "exact-start-end", "display": "Variant exact start and end"}]}}]}, {"resourceType": "Observation", "id": "sid-1914d2f4fd9f4", "meta": {"profile": ["http://hl7.org/fhir/uv/genomics-reporting/StructureDefinition/sequence-phase-relationship"]}, "status": "final", "category": [{"coding": [{"system": "http://terminology.hl7.org/CodeSystem/observation-category", "code": "laboratory"}]}], "code": {"coding": [{"system": "http://loinc.org", "code": "82120-7", "display": "Allelic phase"}]}, "subject": {"reference": "Patient/a"}, "valueCodeableConcept": {"coding": [{"system": "http://hl7.org/fhir/uv/genomics-reporting/CodeSystem/seq-phase-relationship", "code": "Cis", "display": "Cis"}]}, "derivedFrom": [{"reference": "#dv-34cc5dfeeb6b4"}, {"reference": "#dv-34cc5dfeeb6b4"}]}, {"resourceType": "Observation", "id": "sid-5d72eaa81f0a4", "meta": {"profile": ["http://hl7.org/fhir/uv/genomics-reporting/StructureDefinition/sequence-phase-relationship"]}, "status": "final", "category": [{"coding": [{"system": "http://terminology.hl7.org/CodeSystem/observation-category", "code": "laboratory"}]}], "code": {"coding": [{"system": "http://loinc.org", "code": "82120-7", "display": "Allelic phase"}]}, "subject": {"reference": "Patient/a"}, "valueCodeableConcept": {"coding": [{"system": "http://hl7.org/fhir/uv/genomics-reporting/CodeSystem/seq-phase-relationship", "code": "Cis", "display": "Cis"}]}, "derivedFrom": [{"reference": "#dv-34cc5dfeeb6b4"}, {"reference": "#dv-34cc5dfeeb6b4"}]}, {"resourceType": "Observation", "id": "sid-74069e29af024", "meta": {"profile": ["http://hl7.org/fhir/uv/genomics-reporting/StructureDefinition/sequence-phase-relationship"]}, "status": "final", "category": [{"coding": [{"system": "http://terminology.hl7.org/CodeSystem/observation-category", "code": "laboratory"}]}], "code": {"coding": [{"system": "http://loinc.org", "code": "82120-7", "display": "Allelic phase"}]}, "subject": {"reference": "Patient/a"}, "valueCodeableConcept": {"coding": [{"system": "http://hl7.org/fhir/uv/genomics-reporting/CodeSystem/seq-phase-relationship", "code": "Cis", "display": "Cis"}]}, "derivedFrom": [{"reference": "#dv-34cc5dfeeb6b4"}, {"reference": "#dv-34cc5dfeeb6b4"}]}, {"resourceType": "Observation", "id": "sid-23fb445f5aeb4", "meta": {"profile": ["http://hl7.org/fhir/uv/genomics-reporting/StructureDefinition/sequence-phase-relationship"]}, "status": "final", "category": [{"coding": [{"system": "http://terminology.hl7.org/CodeSystem/observation-category", "code": "laboratory"}]}], "code": {"coding": [{"system": "http://loinc.org", "code": "82120-7", "display": "Allelic phase"}]}, "subject": {"reference": "Patient/a"}, "valueCodeableConcept": {"coding": [{"system": "http://hl7.org/fhir/uv/genomics-reporting/CodeSystem/seq-phase-relationship", "code": "Cis", "display": "Cis"}]}, "derivedFrom": [{"reference": "#dv-34cc5dfeeb6b4"}, {"reference": "#dv-34cc5dfeeb6b4"}]}], "status": "final", "code": {"coding": [{"system": "http://loinc.org", "code": "81247-9", "display": "Master HL7 genetic variant reporting panel"}]}, "subject": {"reference": "Patient/a"}, "issued": "2020-03-13T12:06:16+00:00", "result": [{"reference": "#rs-f57ccefd7dc04"}, {"reference": "#dv-34cc5dfeeb6b4"}, {"reference": "#sid-1914d2f4fd9f4"}, {"reference": "#sid-5d72eaa81f0a4"}, {"reference": "#sid-74069e29af024"}, {"reference": "#sid-23fb445f5aeb4"}]}