<?xml version="1.0" encoding="utf-8"?>
<DiagnosticReport xmlns="http://hl7.org/fhir">
  <id value="dr-5c7f78cb6ee27"/>
  <meta>
    <profile value="http://hl7.org/fhir/uv/genomics-reporting/StructureDefinition/diagnosticreport"/>
  </meta>
  <contained>
    <Observation>
      <id value="rs-5c7f78cb6ed9c"/>
      <meta>
        <profile value="http://hl7.org/fhir/uv/genomics-reporting/StructureDefinition/obs-region-studied"/>
      </meta>
      <status value="final"/>
      <category>
        <coding>
          <system value="http://terminology.hl7.org/CodeSystem/observation-category"/>
          <code value="laboratory"/>
        </coding>
      </category>
      <code>
        <coding>
          <system value="http://loinc.org"/>
          <code value="TBD-RegionsStudied"/>
          <display value="Region studied"/>
        </coding>
      </code>
      <subject>
        <reference value="Patient/HG03239"/>
      </subject>
      <issued value="2019-03-06T07:37:47+00:00"/>
      <valueCodeableConcept>
        <coding>
          <system value="http://loinc.org"/>
          <code value="LA9633-4"/>
          <display value="Present"/>
        </coding>
      </valueCodeableConcept>
      <component>
        <code>
          <coding>
            <system value="http://loinc.org"/>
            <code value="48018-6"/>
            <display value="Gene studied ID"/>
          </coding>
        </code>
        <valueCodeableConcept>
          <coding>
            <system value="http://www.genenames.org"/>
            <code value="HGNC:12014"/>
            <display value="TPMT"/>
          </coding>
        </valueCodeableConcept>
      </component>
    </Observation>
  </contained>
  <contained>
    <Observation>
      <id value="dv-5c7f78cb6ee6e"/>
      <meta>
        <profile value="http://hl7.org/fhir/uv/genomics-reporting/StructureDefinition/obs-described-variant"/>
      </meta>
      <status value="final"/>
      <category>
        <coding>
          <system value="http://terminology.hl7.org/CodeSystem/observation-category"/>
          <code value="laboratory"/>
        </coding>
      </category>
      <code>
        <coding>
          <system value="http://loinc.org"/>
          <code value="TBD-Described"/>
          <display value="Genetic variant assessment"/>
        </coding>
      </code>
      <subject>
        <reference value="Patient/HG03239"/>
      </subject>
      <issued value="2019-03-06T07:37:47+00:00"/>
      <valueCodeableConcept>
        <coding>
          <system value="http://loinc.org"/>
          <code value="LA9633-4"/>
          <display value="Present"/>
        </coding>
      </valueCodeableConcept>
      <component>
        <code>
          <coding>
            <system value="http://loinc.org"/>
            <code value="62374-4"/>
            <display value="Human reference sequence assembly version"/>
          </coding>
        </code>
        <valueCodeableConcept>
          <coding>
            <system value="http://loinc.org"/>
            <code value="LA14029-5"/>
            <display value="GRCh37"/>
          </coding>
        </valueCodeableConcept>
      </component>
      <component>
        <code>
          <coding>
            <system value="http://loinc.org"/>
            <code value="48013-7"/>
            <display value="Genomic reference sequence ID"/>
          </coding>
        </code>
        <valueCodeableConcept>
          <coding>
            <system value="http://www.ncbi.nlm.nih.gov/nuccore"/>
            <code value="NC_000006.11"/>
          </coding>
        </valueCodeableConcept>
      </component>
      <component>
        <code>
          <coding>
            <system value="http://loinc.org"/>
            <code value="53034-5"/>
            <display value="Allelic state"/>
          </coding>
        </code>
        <valueCodeableConcept>
          <coding>
            <system value="http://loinc.org"/>
            <code value="LA6706-1"/>
            <display value="heterozygous"/>
          </coding>
        </valueCodeableConcept>
      </component>
      <component>
        <code>
          <coding>
            <system value="http://loinc.org"/>
            <code value="69547-8"/>
            <display value="Genomic Ref allele"/>
          </coding>
        </code>
        <valueString value="T"/>
      </component>
      <component>
        <code>
          <coding>
            <system value="http://loinc.org"/>
            <code value="69551-0"/>
            <display value="Genomic Alt allele"/>
          </coding>
        </code>
        <valueString value="A"/>
      </component>
      <component>
        <code>
          <coding>
            <system value="http://loinc.org"/>
            <code value="tbd-coordinate system"/>
            <display value="Genomic coordinate system"/>
          </coding>
        </code>
        <valueCodeableConcept>
          <coding>
            <system value="http://hl7.org/fhir/uv/genomics-reporting/CodeSystem/genetic-coordinate-system"/>
            <code value="1"/>
          </coding>
        </valueCodeableConcept>
      </component>
      <component>
        <code>
          <coding>
            <system value="http://loinc.org"/>
            <code value="81254-5"/>
            <display value="Genomic Allele start-end"/>
          </coding>
        </code>
        <valueRange>
          <low>
            <value value="18128659"/>
          </low>
        </valueRange>
      </component>
    </Observation>
  </contained>
  <contained>
    <Observation>
      <id value="dv-5c7f78cb6efff"/>
      <meta>
        <profile value="http://hl7.org/fhir/uv/genomics-reporting/StructureDefinition/obs-described-variant"/>
      </meta>
      <status value="final"/>
      <category>
        <coding>
          <system value="http://terminology.hl7.org/CodeSystem/observation-category"/>
          <code value="laboratory"/>
        </coding>
      </category>
      <code>
        <coding>
          <system value="http://loinc.org"/>
          <code value="TBD-Described"/>
          <display value="Genetic variant assessment"/>
        </coding>
      </code>
      <subject>
        <reference value="Patient/HG03239"/>
      </subject>
      <issued value="2019-03-06T07:37:47+00:00"/>
      <valueCodeableConcept>
        <coding>
          <system value="http://loinc.org"/>
          <code value="LA9633-4"/>
          <display value="Present"/>
        </coding>
      </valueCodeableConcept>
      <component>
        <code>
          <coding>
            <system value="http://loinc.org"/>
            <code value="62374-4"/>
            <display value="Human reference sequence assembly version"/>
          </coding>
        </code>
        <valueCodeableConcept>
          <coding>
            <system value="http://loinc.org"/>
            <code value="LA14029-5"/>
            <display value="GRCh37"/>
          </coding>
        </valueCodeableConcept>
      </component>
      <component>
        <code>
          <coding>
            <system value="http://loinc.org"/>
            <code value="48013-7"/>
            <display value="Genomic reference sequence ID"/>
          </coding>
        </code>
        <valueCodeableConcept>
          <coding>
            <system value="http://www.ncbi.nlm.nih.gov/nuccore"/>
            <code value="NC_000006.11"/>
          </coding>
        </valueCodeableConcept>
      </component>
      <component>
        <code>
          <coding>
            <system value="http://loinc.org"/>
            <code value="53034-5"/>
            <display value="Allelic state"/>
          </coding>
        </code>
        <valueCodeableConcept>
          <coding>
            <system value="http://loinc.org"/>
            <code value="LA6706-1"/>
            <display value="heterozygous"/>
          </coding>
        </valueCodeableConcept>
      </component>
      <component>
        <code>
          <coding>
            <system value="http://loinc.org"/>
            <code value="69547-8"/>
            <display value="Genomic Ref allele"/>
          </coding>
        </code>
        <valueString value="T"/>
      </component>
      <component>
        <code>
          <coding>
            <system value="http://loinc.org"/>
            <code value="69551-0"/>
            <display value="Genomic Alt allele"/>
          </coding>
        </code>
        <valueString value="G"/>
      </component>
      <component>
        <code>
          <coding>
            <system value="http://loinc.org"/>
            <code value="tbd-coordinate system"/>
            <display value="Genomic coordinate system"/>
          </coding>
        </code>
        <valueCodeableConcept>
          <coding>
            <system value="http://hl7.org/fhir/uv/genomics-reporting/CodeSystem/genetic-coordinate-system"/>
            <code value="1"/>
          </coding>
        </valueCodeableConcept>
      </component>
      <component>
        <code>
          <coding>
            <system value="http://loinc.org"/>
            <code value="81254-5"/>
            <display value="Genomic Allele start-end"/>
          </coding>
        </code>
        <valueRange>
          <low>
            <value value="18128999"/>
          </low>
        </valueRange>
      </component>
    </Observation>
  </contained>
  <contained>
    <Observation>
      <id value="dv-5c7f78cb6f148"/>
      <meta>
        <profile value="http://hl7.org/fhir/uv/genomics-reporting/StructureDefinition/obs-described-variant"/>
      </meta>
      <status value="final"/>
      <category>
        <coding>
          <system value="http://terminology.hl7.org/CodeSystem/observation-category"/>
          <code value="laboratory"/>
        </coding>
      </category>
      <code>
        <coding>
          <system value="http://loinc.org"/>
          <code value="TBD-Described"/>
          <display value="Genetic variant assessment"/>
        </coding>
      </code>
      <subject>
        <reference value="Patient/HG03239"/>
      </subject>
      <issued value="2019-03-06T07:37:47+00:00"/>
      <valueCodeableConcept>
        <coding>
          <system value="http://loinc.org"/>
          <code value="LA9633-4"/>
          <display value="Present"/>
        </coding>
      </valueCodeableConcept>
      <component>
        <code>
          <coding>
            <system value="http://loinc.org"/>
            <code value="62374-4"/>
            <display value="Human reference sequence assembly version"/>
          </coding>
        </code>
        <valueCodeableConcept>
          <coding>
            <system value="http://loinc.org"/>
            <code value="LA14029-5"/>
            <display value="GRCh37"/>
          </coding>
        </valueCodeableConcept>
      </component>
      <component>
        <code>
          <coding>
            <system value="http://loinc.org"/>
            <code value="48013-7"/>
            <display value="Genomic reference sequence ID"/>
          </coding>
        </code>
        <valueCodeableConcept>
          <coding>
            <system value="http://www.ncbi.nlm.nih.gov/nuccore"/>
            <code value="NC_000006.11"/>
          </coding>
        </valueCodeableConcept>
      </component>
      <component>
        <code>
          <coding>
            <system value="http://loinc.org"/>
            <code value="53034-5"/>
            <display value="Allelic state"/>
          </coding>
        </code>
        <valueCodeableConcept>
          <coding>
            <system value="http://loinc.org"/>
            <code value="LA6706-1"/>
            <display value="heterozygous"/>
          </coding>
        </valueCodeableConcept>
      </component>
      <component>
        <code>
          <coding>
            <system value="http://loinc.org"/>
            <code value="69547-8"/>
            <display value="Genomic Ref allele"/>
          </coding>
        </code>
        <valueString value="A"/>
      </component>
      <component>
        <code>
          <coding>
            <system value="http://loinc.org"/>
            <code value="69551-0"/>
            <display value="Genomic Alt allele"/>
          </coding>
        </code>
        <valueString value="AT"/>
      </component>
      <component>
        <code>
          <coding>
            <system value="http://loinc.org"/>
            <code value="tbd-coordinate system"/>
            <display value="Genomic coordinate system"/>
          </coding>
        </code>
        <valueCodeableConcept>
          <coding>
            <system value="http://hl7.org/fhir/uv/genomics-reporting/CodeSystem/genetic-coordinate-system"/>
            <code value="1"/>
          </coding>
        </valueCodeableConcept>
      </component>
      <component>
        <code>
          <coding>
            <system value="http://loinc.org"/>
            <code value="81254-5"/>
            <display value="Genomic Allele start-end"/>
          </coding>
        </code>
        <valueRange>
          <low>
            <value value="18129117"/>
          </low>
        </valueRange>
      </component>
    </Observation>
  </contained>
  <contained>
    <Observation>
      <id value="dv-5c7f78cb6f234"/>
      <meta>
        <profile value="http://hl7.org/fhir/uv/genomics-reporting/StructureDefinition/obs-described-variant"/>
      </meta>
      <status value="final"/>
      <category>
        <coding>
          <system value="http://terminology.hl7.org/CodeSystem/observation-category"/>
          <code value="laboratory"/>
        </coding>
      </category>
      <code>
        <coding>
          <system value="http://loinc.org"/>
          <code value="TBD-Described"/>
          <display value="Genetic variant assessment"/>
        </coding>
      </code>
      <subject>
        <reference value="Patient/HG03239"/>
      </subject>
      <issued value="2019-03-06T07:37:47+00:00"/>
      <valueCodeableConcept>
        <coding>
          <system value="http://loinc.org"/>
          <code value="LA9633-4"/>
          <display value="Present"/>
        </coding>
      </valueCodeableConcept>
      <component>
        <code>
          <coding>
            <system value="http://loinc.org"/>
            <code value="62374-4"/>
            <display value="Human reference sequence assembly version"/>
          </coding>
        </code>
        <valueCodeableConcept>
          <coding>
            <system value="http://loinc.org"/>
            <code value="LA14029-5"/>
            <display value="GRCh37"/>
          </coding>
        </valueCodeableConcept>
      </component>
      <component>
        <code>
          <coding>
            <system value="http://loinc.org"/>
            <code value="48013-7"/>
            <display value="Genomic reference sequence ID"/>
          </coding>
        </code>
        <valueCodeableConcept>
          <coding>
            <system value="http://www.ncbi.nlm.nih.gov/nuccore"/>
            <code value="NC_000006.11"/>
          </coding>
        </valueCodeableConcept>
      </component>
      <component>
        <code>
          <coding>
            <system value="http://loinc.org"/>
            <code value="53034-5"/>
            <display value="Allelic state"/>
          </coding>
        </code>
        <valueCodeableConcept>
          <coding>
            <system value="http://loinc.org"/>
            <code value="LA6706-1"/>
            <display value="heterozygous"/>
          </coding>
        </valueCodeableConcept>
      </component>
      <component>
        <code>
          <coding>
            <system value="http://loinc.org"/>
            <code value="69547-8"/>
            <display value="Genomic Ref allele"/>
          </coding>
        </code>
        <valueString value="C"/>
      </component>
      <component>
        <code>
          <coding>
            <system value="http://loinc.org"/>
            <code value="69551-0"/>
            <display value="Genomic Alt allele"/>
          </coding>
        </code>
        <valueString value="T"/>
      </component>
      <component>
        <code>
          <coding>
            <system value="http://loinc.org"/>
            <code value="tbd-coordinate system"/>
            <display value="Genomic coordinate system"/>
          </coding>
        </code>
        <valueCodeableConcept>
          <coding>
            <system value="http://hl7.org/fhir/uv/genomics-reporting/CodeSystem/genetic-coordinate-system"/>
            <code value="1"/>
          </coding>
        </valueCodeableConcept>
      </component>
      <component>
        <code>
          <coding>
            <system value="http://loinc.org"/>
            <code value="81254-5"/>
            <display value="Genomic Allele start-end"/>
          </coding>
        </code>
        <valueRange>
          <low>
            <value value="18130485"/>
          </low>
        </valueRange>
      </component>
    </Observation>
  </contained>
  <contained>
    <Observation>
      <id value="dv-5c7f78cb6f331"/>
      <meta>
        <profile value="http://hl7.org/fhir/uv/genomics-reporting/StructureDefinition/obs-described-variant"/>
      </meta>
      <status value="final"/>
      <category>
        <coding>
          <system value="http://terminology.hl7.org/CodeSystem/observation-category"/>
          <code value="laboratory"/>
        </coding>
      </category>
      <code>
        <coding>
          <system value="http://loinc.org"/>
          <code value="TBD-Described"/>
          <display value="Genetic variant assessment"/>
        </coding>
      </code>
      <subject>
        <reference value="Patient/HG03239"/>
      </subject>
      <issued value="2019-03-06T07:37:47+00:00"/>
      <valueCodeableConcept>
        <coding>
          <system value="http://loinc.org"/>
          <code value="LA9633-4"/>
          <display value="Present"/>
        </coding>
      </valueCodeableConcept>
      <component>
        <code>
          <coding>
            <system value="http://loinc.org"/>
            <code value="62374-4"/>
            <display value="Human reference sequence assembly version"/>
          </coding>
        </code>
        <valueCodeableConcept>
          <coding>
            <system value="http://loinc.org"/>
            <code value="LA14029-5"/>
            <display value="GRCh37"/>
          </coding>
        </valueCodeableConcept>
      </component>
      <component>
        <code>
          <coding>
            <system value="http://loinc.org"/>
            <code value="48013-7"/>
            <display value="Genomic reference sequence ID"/>
          </coding>
        </code>
        <valueCodeableConcept>
          <coding>
            <system value="http://www.ncbi.nlm.nih.gov/nuccore"/>
            <code value="NC_000006.11"/>
          </coding>
        </valueCodeableConcept>
      </component>
      <component>
        <code>
          <coding>
            <system value="http://loinc.org"/>
            <code value="53034-5"/>
            <display value="Allelic state"/>
          </coding>
        </code>
        <valueCodeableConcept>
          <coding>
            <system value="http://loinc.org"/>
            <code value="LA6706-1"/>
            <display value="heterozygous"/>
          </coding>
        </valueCodeableConcept>
      </component>
      <component>
        <code>
          <coding>
            <system value="http://loinc.org"/>
            <code value="69547-8"/>
            <display value="Genomic Ref allele"/>
          </coding>
        </code>
        <valueString value="C"/>
      </component>
      <component>
        <code>
          <coding>
            <system value="http://loinc.org"/>
            <code value="69551-0"/>
            <display value="Genomic Alt allele"/>
          </coding>
        </code>
        <valueString value="A"/>
      </component>
      <component>
        <code>
          <coding>
            <system value="http://loinc.org"/>
            <code value="tbd-coordinate system"/>
            <display value="Genomic coordinate system"/>
          </coding>
        </code>
        <valueCodeableConcept>
          <coding>
            <system value="http://hl7.org/fhir/uv/genomics-reporting/CodeSystem/genetic-coordinate-system"/>
            <code value="1"/>
          </coding>
        </valueCodeableConcept>
      </component>
      <component>
        <code>
          <coding>
            <system value="http://loinc.org"/>
            <code value="81254-5"/>
            <display value="Genomic Allele start-end"/>
          </coding>
        </code>
        <valueRange>
          <low>
            <value value="18131464"/>
          </low>
        </valueRange>
      </component>
    </Observation>
  </contained>
  <contained>
    <Observation>
      <id value="dv-5c7f78cb6f423"/>
      <meta>
        <profile value="http://hl7.org/fhir/uv/genomics-reporting/StructureDefinition/obs-described-variant"/>
      </meta>
      <status value="final"/>
      <category>
        <coding>
          <system value="http://terminology.hl7.org/CodeSystem/observation-category"/>
          <code value="laboratory"/>
        </coding>
      </category>
      <code>
        <coding>
          <system value="http://loinc.org"/>
          <code value="TBD-Described"/>
          <display value="Genetic variant assessment"/>
        </coding>
      </code>
      <subject>
        <reference value="Patient/HG03239"/>
      </subject>
      <issued value="2019-03-06T07:37:47+00:00"/>
      <valueCodeableConcept>
        <coding>
          <system value="http://loinc.org"/>
          <code value="LA9633-4"/>
          <display value="Present"/>
        </coding>
      </valueCodeableConcept>
      <component>
        <code>
          <coding>
            <system value="http://loinc.org"/>
            <code value="62374-4"/>
            <display value="Human reference sequence assembly version"/>
          </coding>
        </code>
        <valueCodeableConcept>
          <coding>
            <system value="http://loinc.org"/>
            <code value="LA14029-5"/>
            <display value="GRCh37"/>
          </coding>
        </valueCodeableConcept>
      </component>
      <component>
        <code>
          <coding>
            <system value="http://loinc.org"/>
            <code value="48013-7"/>
            <display value="Genomic reference sequence ID"/>
          </coding>
        </code>
        <valueCodeableConcept>
          <coding>
            <system value="http://www.ncbi.nlm.nih.gov/nuccore"/>
            <code value="NC_000006.11"/>
          </coding>
        </valueCodeableConcept>
      </component>
      <component>
        <code>
          <coding>
            <system value="http://loinc.org"/>
            <code value="53034-5"/>
            <display value="Allelic state"/>
          </coding>
        </code>
        <valueCodeableConcept>
          <coding>
            <system value="http://loinc.org"/>
            <code value="LA6706-1"/>
            <display value="heterozygous"/>
          </coding>
        </valueCodeableConcept>
      </component>
      <component>
        <code>
          <coding>
            <system value="http://loinc.org"/>
            <code value="69547-8"/>
            <display value="Genomic Ref allele"/>
          </coding>
        </code>
        <valueString value="A"/>
      </component>
      <component>
        <code>
          <coding>
            <system value="http://loinc.org"/>
            <code value="69551-0"/>
            <display value="Genomic Alt allele"/>
          </coding>
        </code>
        <valueString value="T"/>
      </component>
      <component>
        <code>
          <coding>
            <system value="http://loinc.org"/>
            <code value="tbd-coordinate system"/>
            <display value="Genomic coordinate system"/>
          </coding>
        </code>
        <valueCodeableConcept>
          <coding>
            <system value="http://hl7.org/fhir/uv/genomics-reporting/CodeSystem/genetic-coordinate-system"/>
            <code value="1"/>
          </coding>
        </valueCodeableConcept>
      </component>
      <component>
        <code>
          <coding>
            <system value="http://loinc.org"/>
            <code value="81254-5"/>
            <display value="Genomic Allele start-end"/>
          </coding>
        </code>
        <valueRange>
          <low>
            <value value="18131833"/>
          </low>
        </valueRange>
      </component>
    </Observation>
  </contained>
  <contained>
    <Observation>
      <id value="dv-5c7f78cb6f537"/>
      <meta>
        <profile value="http://hl7.org/fhir/uv/genomics-reporting/StructureDefinition/obs-described-variant"/>
      </meta>
      <status value="final"/>
      <category>
        <coding>
          <system value="http://terminology.hl7.org/CodeSystem/observation-category"/>
          <code value="laboratory"/>
        </coding>
      </category>
      <code>
        <coding>
          <system value="http://loinc.org"/>
          <code value="TBD-Described"/>
          <display value="Genetic variant assessment"/>
        </coding>
      </code>
      <subject>
        <reference value="Patient/HG03239"/>
      </subject>
      <issued value="2019-03-06T07:37:47+00:00"/>
      <valueCodeableConcept>
        <coding>
          <system value="http://loinc.org"/>
          <code value="LA9633-4"/>
          <display value="Present"/>
        </coding>
      </valueCodeableConcept>
      <component>
        <code>
          <coding>
            <system value="http://loinc.org"/>
            <code value="62374-4"/>
            <display value="Human reference sequence assembly version"/>
          </coding>
        </code>
        <valueCodeableConcept>
          <coding>
            <system value="http://loinc.org"/>
            <code value="LA14029-5"/>
            <display value="GRCh37"/>
          </coding>
        </valueCodeableConcept>
      </component>
      <component>
        <code>
          <coding>
            <system value="http://loinc.org"/>
            <code value="48013-7"/>
            <display value="Genomic reference sequence ID"/>
          </coding>
        </code>
        <valueCodeableConcept>
          <coding>
            <system value="http://www.ncbi.nlm.nih.gov/nuccore"/>
            <code value="NC_000006.11"/>
          </coding>
        </valueCodeableConcept>
      </component>
      <component>
        <code>
          <coding>
            <system value="http://loinc.org"/>
            <code value="53034-5"/>
            <display value="Allelic state"/>
          </coding>
        </code>
        <valueCodeableConcept>
          <coding>
            <system value="http://loinc.org"/>
            <code value="LA6706-1"/>
            <display value="heterozygous"/>
          </coding>
        </valueCodeableConcept>
      </component>
      <component>
        <code>
          <coding>
            <system value="http://loinc.org"/>
            <code value="69547-8"/>
            <display value="Genomic Ref allele"/>
          </coding>
        </code>
        <valueString value="C"/>
      </component>
      <component>
        <code>
          <coding>
            <system value="http://loinc.org"/>
            <code value="69551-0"/>
            <display value="Genomic Alt allele"/>
          </coding>
        </code>
        <valueString value="T"/>
      </component>
      <component>
        <code>
          <coding>
            <system value="http://loinc.org"/>
            <code value="tbd-coordinate system"/>
            <display value="Genomic coordinate system"/>
          </coding>
        </code>
        <valueCodeableConcept>
          <coding>
            <system value="http://hl7.org/fhir/uv/genomics-reporting/CodeSystem/genetic-coordinate-system"/>
            <code value="1"/>
          </coding>
        </valueCodeableConcept>
      </component>
      <component>
        <code>
          <coding>
            <system value="http://loinc.org"/>
            <code value="81254-5"/>
            <display value="Genomic Allele start-end"/>
          </coding>
        </code>
        <valueRange>
          <low>
            <value value="18132822"/>
          </low>
        </valueRange>
      </component>
    </Observation>
  </contained>
  <contained>
    <Observation>
      <id value="dv-5c7f78cb6f65b"/>
      <meta>
        <profile value="http://hl7.org/fhir/uv/genomics-reporting/StructureDefinition/obs-described-variant"/>
      </meta>
      <status value="final"/>
      <category>
        <coding>
          <system value="http://terminology.hl7.org/CodeSystem/observation-category"/>
          <code value="laboratory"/>
        </coding>
      </category>
      <code>
        <coding>
          <system value="http://loinc.org"/>
          <code value="TBD-Described"/>
          <display value="Genetic variant assessment"/>
        </coding>
      </code>
      <subject>
        <reference value="Patient/HG03239"/>
      </subject>
      <issued value="2019-03-06T07:37:47+00:00"/>
      <valueCodeableConcept>
        <coding>
          <system value="http://loinc.org"/>
          <code value="LA9633-4"/>
          <display value="Present"/>
        </coding>
      </valueCodeableConcept>
      <component>
        <code>
          <coding>
            <system value="http://loinc.org"/>
            <code value="62374-4"/>
            <display value="Human reference sequence assembly version"/>
          </coding>
        </code>
        <valueCodeableConcept>
          <coding>
            <system value="http://loinc.org"/>
            <code value="LA14029-5"/>
            <display value="GRCh37"/>
          </coding>
        </valueCodeableConcept>
      </component>
      <component>
        <code>
          <coding>
            <system value="http://loinc.org"/>
            <code value="48013-7"/>
            <display value="Genomic reference sequence ID"/>
          </coding>
        </code>
        <valueCodeableConcept>
          <coding>
            <system value="http://www.ncbi.nlm.nih.gov/nuccore"/>
            <code value="NC_000006.11"/>
          </coding>
        </valueCodeableConcept>
      </component>
      <component>
        <code>
          <coding>
            <system value="http://loinc.org"/>
            <code value="53034-5"/>
            <display value="Allelic state"/>
          </coding>
        </code>
        <valueCodeableConcept>
          <coding>
            <system value="http://loinc.org"/>
            <code value="LA6706-1"/>
            <display value="heterozygous"/>
          </coding>
        </valueCodeableConcept>
      </component>
      <component>
        <code>
          <coding>
            <system value="http://loinc.org"/>
            <code value="69547-8"/>
            <display value="Genomic Ref allele"/>
          </coding>
        </code>
        <valueString value="G"/>
      </component>
      <component>
        <code>
          <coding>
            <system value="http://loinc.org"/>
            <code value="69551-0"/>
            <display value="Genomic Alt allele"/>
          </coding>
        </code>
        <valueString value="A"/>
      </component>
      <component>
        <code>
          <coding>
            <system value="http://loinc.org"/>
            <code value="tbd-coordinate system"/>
            <display value="Genomic coordinate system"/>
          </coding>
        </code>
        <valueCodeableConcept>
          <coding>
            <system value="http://hl7.org/fhir/uv/genomics-reporting/CodeSystem/genetic-coordinate-system"/>
            <code value="1"/>
          </coding>
        </valueCodeableConcept>
      </component>
      <component>
        <code>
          <coding>
            <system value="http://loinc.org"/>
            <code value="81254-5"/>
            <display value="Genomic Allele start-end"/>
          </coding>
        </code>
        <valueRange>
          <low>
            <value value="18133256"/>
          </low>
        </valueRange>
      </component>
    </Observation>
  </contained>
  <contained>
    <Observation>
      <id value="dv-5c7f78cb6f783"/>
      <meta>
        <profile value="http://hl7.org/fhir/uv/genomics-reporting/StructureDefinition/obs-described-variant"/>
      </meta>
      <status value="final"/>
      <category>
        <coding>
          <system value="http://terminology.hl7.org/CodeSystem/observation-category"/>
          <code value="laboratory"/>
        </coding>
      </category>
      <code>
        <coding>
          <system value="http://loinc.org"/>
          <code value="TBD-Described"/>
          <display value="Genetic variant assessment"/>
        </coding>
      </code>
      <subject>
        <reference value="Patient/HG03239"/>
      </subject>
      <issued value="2019-03-06T07:37:47+00:00"/>
      <valueCodeableConcept>
        <coding>
          <system value="http://loinc.org"/>
          <code value="LA9633-4"/>
          <display value="Present"/>
        </coding>
      </valueCodeableConcept>
      <component>
        <code>
          <coding>
            <system value="http://loinc.org"/>
            <code value="62374-4"/>
            <display value="Human reference sequence assembly version"/>
          </coding>
        </code>
        <valueCodeableConcept>
          <coding>
            <system value="http://loinc.org"/>
            <code value="LA14029-5"/>
            <display value="GRCh37"/>
          </coding>
        </valueCodeableConcept>
      </component>
      <component>
        <code>
          <coding>
            <system value="http://loinc.org"/>
            <code value="48013-7"/>
            <display value="Genomic reference sequence ID"/>
          </coding>
        </code>
        <valueCodeableConcept>
          <coding>
            <system value="http://www.ncbi.nlm.nih.gov/nuccore"/>
            <code value="NC_000006.11"/>
          </coding>
        </valueCodeableConcept>
      </component>
      <component>
        <code>
          <coding>
            <system value="http://loinc.org"/>
            <code value="53034-5"/>
            <display value="Allelic state"/>
          </coding>
        </code>
        <valueCodeableConcept>
          <coding>
            <system value="http://loinc.org"/>
            <code value="LA6706-1"/>
            <display value="heterozygous"/>
          </coding>
        </valueCodeableConcept>
      </component>
      <component>
        <code>
          <coding>
            <system value="http://loinc.org"/>
            <code value="69547-8"/>
            <display value="Genomic Ref allele"/>
          </coding>
        </code>
        <valueString value="AC"/>
      </component>
      <component>
        <code>
          <coding>
            <system value="http://loinc.org"/>
            <code value="69551-0"/>
            <display value="Genomic Alt allele"/>
          </coding>
        </code>
        <valueString value="AAA"/>
      </component>
      <component>
        <code>
          <coding>
            <system value="http://loinc.org"/>
            <code value="tbd-coordinate system"/>
            <display value="Genomic coordinate system"/>
          </coding>
        </code>
        <valueCodeableConcept>
          <coding>
            <system value="http://hl7.org/fhir/uv/genomics-reporting/CodeSystem/genetic-coordinate-system"/>
            <code value="1"/>
          </coding>
        </valueCodeableConcept>
      </component>
      <component>
        <code>
          <coding>
            <system value="http://loinc.org"/>
            <code value="81254-5"/>
            <display value="Genomic Allele start-end"/>
          </coding>
        </code>
        <valueRange>
          <low>
            <value value="18134020"/>
          </low>
        </valueRange>
      </component>
    </Observation>
  </contained>
  <contained>
    <Observation>
      <id value="dv-5c7f78cb6f8fc"/>
      <meta>
        <profile value="http://hl7.org/fhir/uv/genomics-reporting/StructureDefinition/obs-described-variant"/>
      </meta>
      <status value="final"/>
      <category>
        <coding>
          <system value="http://terminology.hl7.org/CodeSystem/observation-category"/>
          <code value="laboratory"/>
        </coding>
      </category>
      <code>
        <coding>
          <system value="http://loinc.org"/>
          <code value="TBD-Described"/>
          <display value="Genetic variant assessment"/>
        </coding>
      </code>
      <subject>
        <reference value="Patient/HG03239"/>
      </subject>
      <issued value="2019-03-06T07:37:47+00:00"/>
      <valueCodeableConcept>
        <coding>
          <system value="http://loinc.org"/>
          <code value="LA9633-4"/>
          <display value="Present"/>
        </coding>
      </valueCodeableConcept>
      <component>
        <code>
          <coding>
            <system value="http://loinc.org"/>
            <code value="62374-4"/>
            <display value="Human reference sequence assembly version"/>
          </coding>
        </code>
        <valueCodeableConcept>
          <coding>
            <system value="http://loinc.org"/>
            <code value="LA14029-5"/>
            <display value="GRCh37"/>
          </coding>
        </valueCodeableConcept>
      </component>
      <component>
        <code>
          <coding>
            <system value="http://loinc.org"/>
            <code value="48013-7"/>
            <display value="Genomic reference sequence ID"/>
          </coding>
        </code>
        <valueCodeableConcept>
          <coding>
            <system value="http://www.ncbi.nlm.nih.gov/nuccore"/>
            <code value="NC_000006.11"/>
          </coding>
        </valueCodeableConcept>
      </component>
      <component>
        <code>
          <coding>
            <system value="http://loinc.org"/>
            <code value="53034-5"/>
            <display value="Allelic state"/>
          </coding>
        </code>
        <valueCodeableConcept>
          <coding>
            <system value="http://loinc.org"/>
            <code value="LA6706-1"/>
            <display value="heterozygous"/>
          </coding>
        </valueCodeableConcept>
      </component>
      <component>
        <code>
          <coding>
            <system value="http://loinc.org"/>
            <code value="69547-8"/>
            <display value="Genomic Ref allele"/>
          </coding>
        </code>
        <valueString value="C"/>
      </component>
      <component>
        <code>
          <coding>
            <system value="http://loinc.org"/>
            <code value="69551-0"/>
            <display value="Genomic Alt allele"/>
          </coding>
        </code>
        <valueString value="CA"/>
      </component>
      <component>
        <code>
          <coding>
            <system value="http://loinc.org"/>
            <code value="tbd-coordinate system"/>
            <display value="Genomic coordinate system"/>
          </coding>
        </code>
        <valueCodeableConcept>
          <coding>
            <system value="http://hl7.org/fhir/uv/genomics-reporting/CodeSystem/genetic-coordinate-system"/>
            <code value="1"/>
          </coding>
        </valueCodeableConcept>
      </component>
      <component>
        <code>
          <coding>
            <system value="http://loinc.org"/>
            <code value="81254-5"/>
            <display value="Genomic Allele start-end"/>
          </coding>
        </code>
        <valueRange>
          <low>
            <value value="18134692"/>
          </low>
        </valueRange>
      </component>
    </Observation>
  </contained>
  <contained>
    <Observation>
      <id value="dv-5c7f78cb6fa7b"/>
      <meta>
        <profile value="http://hl7.org/fhir/uv/genomics-reporting/StructureDefinition/obs-described-variant"/>
      </meta>
      <status value="final"/>
      <category>
        <coding>
          <system value="http://terminology.hl7.org/CodeSystem/observation-category"/>
          <code value="laboratory"/>
        </coding>
      </category>
      <code>
        <coding>
          <system value="http://loinc.org"/>
          <code value="TBD-Described"/>
          <display value="Genetic variant assessment"/>
        </coding>
      </code>
      <subject>
        <reference value="Patient/HG03239"/>
      </subject>
      <issued value="2019-03-06T07:37:47+00:00"/>
      <valueCodeableConcept>
        <coding>
          <system value="http://loinc.org"/>
          <code value="LA9633-4"/>
          <display value="Present"/>
        </coding>
      </valueCodeableConcept>
      <component>
        <code>
          <coding>
            <system value="http://loinc.org"/>
            <code value="62374-4"/>
            <display value="Human reference sequence assembly version"/>
          </coding>
        </code>
        <valueCodeableConcept>
          <coding>
            <system value="http://loinc.org"/>
            <code value="LA14029-5"/>
            <display value="GRCh37"/>
          </coding>
        </valueCodeableConcept>
      </component>
      <component>
        <code>
          <coding>
            <system value="http://loinc.org"/>
            <code value="48013-7"/>
            <display value="Genomic reference sequence ID"/>
          </coding>
        </code>
        <valueCodeableConcept>
          <coding>
            <system value="http://www.ncbi.nlm.nih.gov/nuccore"/>
            <code value="NC_000006.11"/>
          </coding>
        </valueCodeableConcept>
      </component>
      <component>
        <code>
          <coding>
            <system value="http://loinc.org"/>
            <code value="53034-5"/>
            <display value="Allelic state"/>
          </coding>
        </code>
        <valueCodeableConcept>
          <coding>
            <system value="http://loinc.org"/>
            <code value="LA6706-1"/>
            <display value="heterozygous"/>
          </coding>
        </valueCodeableConcept>
      </component>
      <component>
        <code>
          <coding>
            <system value="http://loinc.org"/>
            <code value="69547-8"/>
            <display value="Genomic Ref allele"/>
          </coding>
        </code>
        <valueString value="T"/>
      </component>
      <component>
        <code>
          <coding>
            <system value="http://loinc.org"/>
            <code value="69551-0"/>
            <display value="Genomic Alt allele"/>
          </coding>
        </code>
        <valueString value="C"/>
      </component>
      <component>
        <code>
          <coding>
            <system value="http://loinc.org"/>
            <code value="tbd-coordinate system"/>
            <display value="Genomic coordinate system"/>
          </coding>
        </code>
        <valueCodeableConcept>
          <coding>
            <system value="http://hl7.org/fhir/uv/genomics-reporting/CodeSystem/genetic-coordinate-system"/>
            <code value="1"/>
          </coding>
        </valueCodeableConcept>
      </component>
      <component>
        <code>
          <coding>
            <system value="http://loinc.org"/>
            <code value="81254-5"/>
            <display value="Genomic Allele start-end"/>
          </coding>
        </code>
        <valueRange>
          <low>
            <value value="18135178"/>
          </low>
        </valueRange>
      </component>
    </Observation>
  </contained>
  <contained>
    <Observation>
      <id value="dv-5c7f78cb6fb81"/>
      <meta>
        <profile value="http://hl7.org/fhir/uv/genomics-reporting/StructureDefinition/obs-described-variant"/>
      </meta>
      <status value="final"/>
      <category>
        <coding>
          <system value="http://terminology.hl7.org/CodeSystem/observation-category"/>
          <code value="laboratory"/>
        </coding>
      </category>
      <code>
        <coding>
          <system value="http://loinc.org"/>
          <code value="TBD-Described"/>
          <display value="Genetic variant assessment"/>
        </coding>
      </code>
      <subject>
        <reference value="Patient/HG03239"/>
      </subject>
      <issued value="2019-03-06T07:37:47+00:00"/>
      <valueCodeableConcept>
        <coding>
          <system value="http://loinc.org"/>
          <code value="LA9633-4"/>
          <display value="Present"/>
        </coding>
      </valueCodeableConcept>
      <component>
        <code>
          <coding>
            <system value="http://loinc.org"/>
            <code value="62374-4"/>
            <display value="Human reference sequence assembly version"/>
          </coding>
        </code>
        <valueCodeableConcept>
          <coding>
            <system value="http://loinc.org"/>
            <code value="LA14029-5"/>
            <display value="GRCh37"/>
          </coding>
        </valueCodeableConcept>
      </component>
      <component>
        <code>
          <coding>
            <system value="http://loinc.org"/>
            <code value="48013-7"/>
            <display value="Genomic reference sequence ID"/>
          </coding>
        </code>
        <valueCodeableConcept>
          <coding>
            <system value="http://www.ncbi.nlm.nih.gov/nuccore"/>
            <code value="NC_000006.11"/>
          </coding>
        </valueCodeableConcept>
      </component>
      <component>
        <code>
          <coding>
            <system value="http://loinc.org"/>
            <code value="53034-5"/>
            <display value="Allelic state"/>
          </coding>
        </code>
        <valueCodeableConcept>
          <coding>
            <system value="http://loinc.org"/>
            <code value="LA6706-1"/>
            <display value="heterozygous"/>
          </coding>
        </valueCodeableConcept>
      </component>
      <component>
        <code>
          <coding>
            <system value="http://loinc.org"/>
            <code value="69547-8"/>
            <display value="Genomic Ref allele"/>
          </coding>
        </code>
        <valueString value="T"/>
      </component>
      <component>
        <code>
          <coding>
            <system value="http://loinc.org"/>
            <code value="69551-0"/>
            <display value="Genomic Alt allele"/>
          </coding>
        </code>
        <valueString value="C"/>
      </component>
      <component>
        <code>
          <coding>
            <system value="http://loinc.org"/>
            <code value="tbd-coordinate system"/>
            <display value="Genomic coordinate system"/>
          </coding>
        </code>
        <valueCodeableConcept>
          <coding>
            <system value="http://hl7.org/fhir/uv/genomics-reporting/CodeSystem/genetic-coordinate-system"/>
            <code value="1"/>
          </coding>
        </valueCodeableConcept>
      </component>
      <component>
        <code>
          <coding>
            <system value="http://loinc.org"/>
            <code value="81254-5"/>
            <display value="Genomic Allele start-end"/>
          </coding>
        </code>
        <valueRange>
          <low>
            <value value="18135683"/>
          </low>
        </valueRange>
      </component>
    </Observation>
  </contained>
  <contained>
    <Observation>
      <id value="dv-5c7f78cb6fc77"/>
      <meta>
        <profile value="http://hl7.org/fhir/uv/genomics-reporting/StructureDefinition/obs-described-variant"/>
      </meta>
      <status value="final"/>
      <category>
        <coding>
          <system value="http://terminology.hl7.org/CodeSystem/observation-category"/>
          <code value="laboratory"/>
        </coding>
      </category>
      <code>
        <coding>
          <system value="http://loinc.org"/>
          <code value="TBD-Described"/>
          <display value="Genetic variant assessment"/>
        </coding>
      </code>
      <subject>
        <reference value="Patient/HG03239"/>
      </subject>
      <issued value="2019-03-06T07:37:47+00:00"/>
      <valueCodeableConcept>
        <coding>
          <system value="http://loinc.org"/>
          <code value="LA9633-4"/>
          <display value="Present"/>
        </coding>
      </valueCodeableConcept>
      <component>
        <code>
          <coding>
            <system value="http://loinc.org"/>
            <code value="62374-4"/>
            <display value="Human reference sequence assembly version"/>
          </coding>
        </code>
        <valueCodeableConcept>
          <coding>
            <system value="http://loinc.org"/>
            <code value="LA14029-5"/>
            <display value="GRCh37"/>
          </coding>
        </valueCodeableConcept>
      </component>
      <component>
        <code>
          <coding>
            <system value="http://loinc.org"/>
            <code value="48013-7"/>
            <display value="Genomic reference sequence ID"/>
          </coding>
        </code>
        <valueCodeableConcept>
          <coding>
            <system value="http://www.ncbi.nlm.nih.gov/nuccore"/>
            <code value="NC_000006.11"/>
          </coding>
        </valueCodeableConcept>
      </component>
      <component>
        <code>
          <coding>
            <system value="http://loinc.org"/>
            <code value="53034-5"/>
            <display value="Allelic state"/>
          </coding>
        </code>
        <valueCodeableConcept>
          <coding>
            <system value="http://loinc.org"/>
            <code value="LA6706-1"/>
            <display value="heterozygous"/>
          </coding>
        </valueCodeableConcept>
      </component>
      <component>
        <code>
          <coding>
            <system value="http://loinc.org"/>
            <code value="69547-8"/>
            <display value="Genomic Ref allele"/>
          </coding>
        </code>
        <valueString value="C"/>
      </component>
      <component>
        <code>
          <coding>
            <system value="http://loinc.org"/>
            <code value="69551-0"/>
            <display value="Genomic Alt allele"/>
          </coding>
        </code>
        <valueString value="G"/>
      </component>
      <component>
        <code>
          <coding>
            <system value="http://loinc.org"/>
            <code value="tbd-coordinate system"/>
            <display value="Genomic coordinate system"/>
          </coding>
        </code>
        <valueCodeableConcept>
          <coding>
            <system value="http://hl7.org/fhir/uv/genomics-reporting/CodeSystem/genetic-coordinate-system"/>
            <code value="1"/>
          </coding>
        </valueCodeableConcept>
      </component>
      <component>
        <code>
          <coding>
            <system value="http://loinc.org"/>
            <code value="81254-5"/>
            <display value="Genomic Allele start-end"/>
          </coding>
        </code>
        <valueRange>
          <low>
            <value value="18135816"/>
          </low>
        </valueRange>
      </component>
    </Observation>
  </contained>
  <contained>
    <Observation>
      <id value="dv-5c7f78cb6fd6e"/>
      <meta>
        <profile value="http://hl7.org/fhir/uv/genomics-reporting/StructureDefinition/obs-described-variant"/>
      </meta>
      <status value="final"/>
      <category>
        <coding>
          <system value="http://terminology.hl7.org/CodeSystem/observation-category"/>
          <code value="laboratory"/>
        </coding>
      </category>
      <code>
        <coding>
          <system value="http://loinc.org"/>
          <code value="TBD-Described"/>
          <display value="Genetic variant assessment"/>
        </coding>
      </code>
      <subject>
        <reference value="Patient/HG03239"/>
      </subject>
      <issued value="2019-03-06T07:37:47+00:00"/>
      <valueCodeableConcept>
        <coding>
          <system value="http://loinc.org"/>
          <code value="LA9633-4"/>
          <display value="Present"/>
        </coding>
      </valueCodeableConcept>
      <component>
        <code>
          <coding>
            <system value="http://loinc.org"/>
            <code value="62374-4"/>
            <display value="Human reference sequence assembly version"/>
          </coding>
        </code>
        <valueCodeableConcept>
          <coding>
            <system value="http://loinc.org"/>
            <code value="LA14029-5"/>
            <display value="GRCh37"/>
          </coding>
        </valueCodeableConcept>
      </component>
      <component>
        <code>
          <coding>
            <system value="http://loinc.org"/>
            <code value="48013-7"/>
            <display value="Genomic reference sequence ID"/>
          </coding>
        </code>
        <valueCodeableConcept>
          <coding>
            <system value="http://www.ncbi.nlm.nih.gov/nuccore"/>
            <code value="NC_000006.11"/>
          </coding>
        </valueCodeableConcept>
      </component>
      <component>
        <code>
          <coding>
            <system value="http://loinc.org"/>
            <code value="53034-5"/>
            <display value="Allelic state"/>
          </coding>
        </code>
        <valueCodeableConcept>
          <coding>
            <system value="http://loinc.org"/>
            <code value="LA6706-1"/>
            <display value="heterozygous"/>
          </coding>
        </valueCodeableConcept>
      </component>
      <component>
        <code>
          <coding>
            <system value="http://loinc.org"/>
            <code value="69547-8"/>
            <display value="Genomic Ref allele"/>
          </coding>
        </code>
        <valueString value="G"/>
      </component>
      <component>
        <code>
          <coding>
            <system value="http://loinc.org"/>
            <code value="69551-0"/>
            <display value="Genomic Alt allele"/>
          </coding>
        </code>
        <valueString value="C"/>
      </component>
      <component>
        <code>
          <coding>
            <system value="http://loinc.org"/>
            <code value="tbd-coordinate system"/>
            <display value="Genomic coordinate system"/>
          </coding>
        </code>
        <valueCodeableConcept>
          <coding>
            <system value="http://hl7.org/fhir/uv/genomics-reporting/CodeSystem/genetic-coordinate-system"/>
            <code value="1"/>
          </coding>
        </valueCodeableConcept>
      </component>
      <component>
        <code>
          <coding>
            <system value="http://loinc.org"/>
            <code value="81254-5"/>
            <display value="Genomic Allele start-end"/>
          </coding>
        </code>
        <valueRange>
          <low>
            <value value="18135831"/>
          </low>
        </valueRange>
      </component>
    </Observation>
  </contained>
  <contained>
    <Observation>
      <id value="dv-5c7f78cb6fe4a"/>
      <meta>
        <profile value="http://hl7.org/fhir/uv/genomics-reporting/StructureDefinition/obs-described-variant"/>
      </meta>
      <status value="final"/>
      <category>
        <coding>
          <system value="http://terminology.hl7.org/CodeSystem/observation-category"/>
          <code value="laboratory"/>
        </coding>
      </category>
      <code>
        <coding>
          <system value="http://loinc.org"/>
          <code value="TBD-Described"/>
          <display value="Genetic variant assessment"/>
        </coding>
      </code>
      <subject>
        <reference value="Patient/HG03239"/>
      </subject>
      <issued value="2019-03-06T07:37:47+00:00"/>
      <valueCodeableConcept>
        <coding>
          <system value="http://loinc.org"/>
          <code value="LA9633-4"/>
          <display value="Present"/>
        </coding>
      </valueCodeableConcept>
      <component>
        <code>
          <coding>
            <system value="http://loinc.org"/>
            <code value="62374-4"/>
            <display value="Human reference sequence assembly version"/>
          </coding>
        </code>
        <valueCodeableConcept>
          <coding>
            <system value="http://loinc.org"/>
            <code value="LA14029-5"/>
            <display value="GRCh37"/>
          </coding>
        </valueCodeableConcept>
      </component>
      <component>
        <code>
          <coding>
            <system value="http://loinc.org"/>
            <code value="48013-7"/>
            <display value="Genomic reference sequence ID"/>
          </coding>
        </code>
        <valueCodeableConcept>
          <coding>
            <system value="http://www.ncbi.nlm.nih.gov/nuccore"/>
            <code value="NC_000006.11"/>
          </coding>
        </valueCodeableConcept>
      </component>
      <component>
        <code>
          <coding>
            <system value="http://loinc.org"/>
            <code value="53034-5"/>
            <display value="Allelic state"/>
          </coding>
        </code>
        <valueCodeableConcept>
          <coding>
            <system value="http://loinc.org"/>
            <code value="LA6706-1"/>
            <display value="heterozygous"/>
          </coding>
        </valueCodeableConcept>
      </component>
      <component>
        <code>
          <coding>
            <system value="http://loinc.org"/>
            <code value="69547-8"/>
            <display value="Genomic Ref allele"/>
          </coding>
        </code>
        <valueString value="T"/>
      </component>
      <component>
        <code>
          <coding>
            <system value="http://loinc.org"/>
            <code value="69551-0"/>
            <display value="Genomic Alt allele"/>
          </coding>
        </code>
        <valueString value="G"/>
      </component>
      <component>
        <code>
          <coding>
            <system value="http://loinc.org"/>
            <code value="tbd-coordinate system"/>
            <display value="Genomic coordinate system"/>
          </coding>
        </code>
        <valueCodeableConcept>
          <coding>
            <system value="http://hl7.org/fhir/uv/genomics-reporting/CodeSystem/genetic-coordinate-system"/>
            <code value="1"/>
          </coding>
        </valueCodeableConcept>
      </component>
      <component>
        <code>
          <coding>
            <system value="http://loinc.org"/>
            <code value="81254-5"/>
            <display value="Genomic Allele start-end"/>
          </coding>
        </code>
        <valueRange>
          <low>
            <value value="18135993"/>
          </low>
        </valueRange>
      </component>
    </Observation>
  </contained>
  <contained>
    <Observation>
      <id value="dv-5c7f78cb6ff3d"/>
      <meta>
        <profile value="http://hl7.org/fhir/uv/genomics-reporting/StructureDefinition/obs-described-variant"/>
      </meta>
      <status value="final"/>
      <category>
        <coding>
          <system value="http://terminology.hl7.org/CodeSystem/observation-category"/>
          <code value="laboratory"/>
        </coding>
      </category>
      <code>
        <coding>
          <system value="http://loinc.org"/>
          <code value="TBD-Described"/>
          <display value="Genetic variant assessment"/>
        </coding>
      </code>
      <subject>
        <reference value="Patient/HG03239"/>
      </subject>
      <issued value="2019-03-06T07:37:47+00:00"/>
      <valueCodeableConcept>
        <coding>
          <system value="http://loinc.org"/>
          <code value="LA9633-4"/>
          <display value="Present"/>
        </coding>
      </valueCodeableConcept>
      <component>
        <code>
          <coding>
            <system value="http://loinc.org"/>
            <code value="62374-4"/>
            <display value="Human reference sequence assembly version"/>
          </coding>
        </code>
        <valueCodeableConcept>
          <coding>
            <system value="http://loinc.org"/>
            <code value="LA14029-5"/>
            <display value="GRCh37"/>
          </coding>
        </valueCodeableConcept>
      </component>
      <component>
        <code>
          <coding>
            <system value="http://loinc.org"/>
            <code value="48013-7"/>
            <display value="Genomic reference sequence ID"/>
          </coding>
        </code>
        <valueCodeableConcept>
          <coding>
            <system value="http://www.ncbi.nlm.nih.gov/nuccore"/>
            <code value="NC_000006.11"/>
          </coding>
        </valueCodeableConcept>
      </component>
      <component>
        <code>
          <coding>
            <system value="http://loinc.org"/>
            <code value="53034-5"/>
            <display value="Allelic state"/>
          </coding>
        </code>
        <valueCodeableConcept>
          <coding>
            <system value="http://loinc.org"/>
            <code value="LA6706-1"/>
            <display value="heterozygous"/>
          </coding>
        </valueCodeableConcept>
      </component>
      <component>
        <code>
          <coding>
            <system value="http://loinc.org"/>
            <code value="69547-8"/>
            <display value="Genomic Ref allele"/>
          </coding>
        </code>
        <valueString value="T"/>
      </component>
      <component>
        <code>
          <coding>
            <system value="http://loinc.org"/>
            <code value="69551-0"/>
            <display value="Genomic Alt allele"/>
          </coding>
        </code>
        <valueString value="C"/>
      </component>
      <component>
        <code>
          <coding>
            <system value="http://loinc.org"/>
            <code value="tbd-coordinate system"/>
            <display value="Genomic coordinate system"/>
          </coding>
        </code>
        <valueCodeableConcept>
          <coding>
            <system value="http://hl7.org/fhir/uv/genomics-reporting/CodeSystem/genetic-coordinate-system"/>
            <code value="1"/>
          </coding>
        </valueCodeableConcept>
      </component>
      <component>
        <code>
          <coding>
            <system value="http://loinc.org"/>
            <code value="81254-5"/>
            <display value="Genomic Allele start-end"/>
          </coding>
        </code>
        <valueRange>
          <low>
            <value value="18137036"/>
          </low>
        </valueRange>
      </component>
    </Observation>
  </contained>
  <contained>
    <Observation>
      <id value="dv-5c7f78cb7003d"/>
      <meta>
        <profile value="http://hl7.org/fhir/uv/genomics-reporting/StructureDefinition/obs-described-variant"/>
      </meta>
      <status value="final"/>
      <category>
        <coding>
          <system value="http://terminology.hl7.org/CodeSystem/observation-category"/>
          <code value="laboratory"/>
        </coding>
      </category>
      <code>
        <coding>
          <system value="http://loinc.org"/>
          <code value="TBD-Described"/>
          <display value="Genetic variant assessment"/>
        </coding>
      </code>
      <subject>
        <reference value="Patient/HG03239"/>
      </subject>
      <issued value="2019-03-06T07:37:47+00:00"/>
      <valueCodeableConcept>
        <coding>
          <system value="http://loinc.org"/>
          <code value="LA9633-4"/>
          <display value="Present"/>
        </coding>
      </valueCodeableConcept>
      <component>
        <code>
          <coding>
            <system value="http://loinc.org"/>
            <code value="62374-4"/>
            <display value="Human reference sequence assembly version"/>
          </coding>
        </code>
        <valueCodeableConcept>
          <coding>
            <system value="http://loinc.org"/>
            <code value="LA14029-5"/>
            <display value="GRCh37"/>
          </coding>
        </valueCodeableConcept>
      </component>
      <component>
        <code>
          <coding>
            <system value="http://loinc.org"/>
            <code value="48013-7"/>
            <display value="Genomic reference sequence ID"/>
          </coding>
        </code>
        <valueCodeableConcept>
          <coding>
            <system value="http://www.ncbi.nlm.nih.gov/nuccore"/>
            <code value="NC_000006.11"/>
          </coding>
        </valueCodeableConcept>
      </component>
      <component>
        <code>
          <coding>
            <system value="http://loinc.org"/>
            <code value="53034-5"/>
            <display value="Allelic state"/>
          </coding>
        </code>
        <valueCodeableConcept>
          <coding>
            <system value="http://loinc.org"/>
            <code value="LA6706-1"/>
            <display value="heterozygous"/>
          </coding>
        </valueCodeableConcept>
      </component>
      <component>
        <code>
          <coding>
            <system value="http://loinc.org"/>
            <code value="69547-8"/>
            <display value="Genomic Ref allele"/>
          </coding>
        </code>
        <valueString value="G"/>
      </component>
      <component>
        <code>
          <coding>
            <system value="http://loinc.org"/>
            <code value="69551-0"/>
            <display value="Genomic Alt allele"/>
          </coding>
        </code>
        <valueString value="GT"/>
      </component>
      <component>
        <code>
          <coding>
            <system value="http://loinc.org"/>
            <code value="tbd-coordinate system"/>
            <display value="Genomic coordinate system"/>
          </coding>
        </code>
        <valueCodeableConcept>
          <coding>
            <system value="http://hl7.org/fhir/uv/genomics-reporting/CodeSystem/genetic-coordinate-system"/>
            <code value="1"/>
          </coding>
        </valueCodeableConcept>
      </component>
      <component>
        <code>
          <coding>
            <system value="http://loinc.org"/>
            <code value="81254-5"/>
            <display value="Genomic Allele start-end"/>
          </coding>
        </code>
        <valueRange>
          <low>
            <value value="18137357"/>
          </low>
        </valueRange>
      </component>
    </Observation>
  </contained>
  <contained>
    <Observation>
      <id value="dv-5c7f78cb7012a"/>
      <meta>
        <profile value="http://hl7.org/fhir/uv/genomics-reporting/StructureDefinition/obs-described-variant"/>
      </meta>
      <status value="final"/>
      <category>
        <coding>
          <system value="http://terminology.hl7.org/CodeSystem/observation-category"/>
          <code value="laboratory"/>
        </coding>
      </category>
      <code>
        <coding>
          <system value="http://loinc.org"/>
          <code value="TBD-Described"/>
          <display value="Genetic variant assessment"/>
        </coding>
      </code>
      <subject>
        <reference value="Patient/HG03239"/>
      </subject>
      <issued value="2019-03-06T07:37:47+00:00"/>
      <valueCodeableConcept>
        <coding>
          <system value="http://loinc.org"/>
          <code value="LA9633-4"/>
          <display value="Present"/>
        </coding>
      </valueCodeableConcept>
      <component>
        <code>
          <coding>
            <system value="http://loinc.org"/>
            <code value="62374-4"/>
            <display value="Human reference sequence assembly version"/>
          </coding>
        </code>
        <valueCodeableConcept>
          <coding>
            <system value="http://loinc.org"/>
            <code value="LA14029-5"/>
            <display value="GRCh37"/>
          </coding>
        </valueCodeableConcept>
      </component>
      <component>
        <code>
          <coding>
            <system value="http://loinc.org"/>
            <code value="48013-7"/>
            <display value="Genomic reference sequence ID"/>
          </coding>
        </code>
        <valueCodeableConcept>
          <coding>
            <system value="http://www.ncbi.nlm.nih.gov/nuccore"/>
            <code value="NC_000006.11"/>
          </coding>
        </valueCodeableConcept>
      </component>
      <component>
        <code>
          <coding>
            <system value="http://loinc.org"/>
            <code value="53034-5"/>
            <display value="Allelic state"/>
          </coding>
        </code>
        <valueCodeableConcept>
          <coding>
            <system value="http://loinc.org"/>
            <code value="LA6706-1"/>
            <display value="heterozygous"/>
          </coding>
        </valueCodeableConcept>
      </component>
      <component>
        <code>
          <coding>
            <system value="http://loinc.org"/>
            <code value="69547-8"/>
            <display value="Genomic Ref allele"/>
          </coding>
        </code>
        <valueString value="A"/>
      </component>
      <component>
        <code>
          <coding>
            <system value="http://loinc.org"/>
            <code value="69551-0"/>
            <display value="Genomic Alt allele"/>
          </coding>
        </code>
        <valueString value="G"/>
      </component>
      <component>
        <code>
          <coding>
            <system value="http://loinc.org"/>
            <code value="tbd-coordinate system"/>
            <display value="Genomic coordinate system"/>
          </coding>
        </code>
        <valueCodeableConcept>
          <coding>
            <system value="http://hl7.org/fhir/uv/genomics-reporting/CodeSystem/genetic-coordinate-system"/>
            <code value="1"/>
          </coding>
        </valueCodeableConcept>
      </component>
      <component>
        <code>
          <coding>
            <system value="http://loinc.org"/>
            <code value="81254-5"/>
            <display value="Genomic Allele start-end"/>
          </coding>
        </code>
        <valueRange>
          <low>
            <value value="18137714"/>
          </low>
        </valueRange>
      </component>
    </Observation>
  </contained>
  <contained>
    <Observation>
      <id value="dv-5c7f78cb70219"/>
      <meta>
        <profile value="http://hl7.org/fhir/uv/genomics-reporting/StructureDefinition/obs-described-variant"/>
      </meta>
      <status value="final"/>
      <category>
        <coding>
          <system value="http://terminology.hl7.org/CodeSystem/observation-category"/>
          <code value="laboratory"/>
        </coding>
      </category>
      <code>
        <coding>
          <system value="http://loinc.org"/>
          <code value="TBD-Described"/>
          <display value="Genetic variant assessment"/>
        </coding>
      </code>
      <subject>
        <reference value="Patient/HG03239"/>
      </subject>
      <issued value="2019-03-06T07:37:47+00:00"/>
      <valueCodeableConcept>
        <coding>
          <system value="http://loinc.org"/>
          <code value="LA9633-4"/>
          <display value="Present"/>
        </coding>
      </valueCodeableConcept>
      <component>
        <code>
          <coding>
            <system value="http://loinc.org"/>
            <code value="62374-4"/>
            <display value="Human reference sequence assembly version"/>
          </coding>
        </code>
        <valueCodeableConcept>
          <coding>
            <system value="http://loinc.org"/>
            <code value="LA14029-5"/>
            <display value="GRCh37"/>
          </coding>
        </valueCodeableConcept>
      </component>
      <component>
        <code>
          <coding>
            <system value="http://loinc.org"/>
            <code value="48013-7"/>
            <display value="Genomic reference sequence ID"/>
          </coding>
        </code>
        <valueCodeableConcept>
          <coding>
            <system value="http://www.ncbi.nlm.nih.gov/nuccore"/>
            <code value="NC_000006.11"/>
          </coding>
        </valueCodeableConcept>
      </component>
      <component>
        <code>
          <coding>
            <system value="http://loinc.org"/>
            <code value="53034-5"/>
            <display value="Allelic state"/>
          </coding>
        </code>
        <valueCodeableConcept>
          <coding>
            <system value="http://loinc.org"/>
            <code value="LA6706-1"/>
            <display value="heterozygous"/>
          </coding>
        </valueCodeableConcept>
      </component>
      <component>
        <code>
          <coding>
            <system value="http://loinc.org"/>
            <code value="69547-8"/>
            <display value="Genomic Ref allele"/>
          </coding>
        </code>
        <valueString value="GAC"/>
      </component>
      <component>
        <code>
          <coding>
            <system value="http://loinc.org"/>
            <code value="69551-0"/>
            <display value="Genomic Alt allele"/>
          </coding>
        </code>
        <valueString value="G"/>
      </component>
      <component>
        <code>
          <coding>
            <system value="http://loinc.org"/>
            <code value="tbd-coordinate system"/>
            <display value="Genomic coordinate system"/>
          </coding>
        </code>
        <valueCodeableConcept>
          <coding>
            <system value="http://hl7.org/fhir/uv/genomics-reporting/CodeSystem/genetic-coordinate-system"/>
            <code value="1"/>
          </coding>
        </valueCodeableConcept>
      </component>
      <component>
        <code>
          <coding>
            <system value="http://loinc.org"/>
            <code value="81254-5"/>
            <display value="Genomic Allele start-end"/>
          </coding>
        </code>
        <valueRange>
          <low>
            <value value="18137926"/>
          </low>
        </valueRange>
      </component>
    </Observation>
  </contained>
  <contained>
    <Observation>
      <id value="dv-5c7f78cb70305"/>
      <meta>
        <profile value="http://hl7.org/fhir/uv/genomics-reporting/StructureDefinition/obs-described-variant"/>
      </meta>
      <status value="final"/>
      <category>
        <coding>
          <system value="http://terminology.hl7.org/CodeSystem/observation-category"/>
          <code value="laboratory"/>
        </coding>
      </category>
      <code>
        <coding>
          <system value="http://loinc.org"/>
          <code value="TBD-Described"/>
          <display value="Genetic variant assessment"/>
        </coding>
      </code>
      <subject>
        <reference value="Patient/HG03239"/>
      </subject>
      <issued value="2019-03-06T07:37:47+00:00"/>
      <valueCodeableConcept>
        <coding>
          <system value="http://loinc.org"/>
          <code value="LA9633-4"/>
          <display value="Present"/>
        </coding>
      </valueCodeableConcept>
      <component>
        <code>
          <coding>
            <system value="http://loinc.org"/>
            <code value="62374-4"/>
            <display value="Human reference sequence assembly version"/>
          </coding>
        </code>
        <valueCodeableConcept>
          <coding>
            <system value="http://loinc.org"/>
            <code value="LA14029-5"/>
            <display value="GRCh37"/>
          </coding>
        </valueCodeableConcept>
      </component>
      <component>
        <code>
          <coding>
            <system value="http://loinc.org"/>
            <code value="48013-7"/>
            <display value="Genomic reference sequence ID"/>
          </coding>
        </code>
        <valueCodeableConcept>
          <coding>
            <system value="http://www.ncbi.nlm.nih.gov/nuccore"/>
            <code value="NC_000006.11"/>
          </coding>
        </valueCodeableConcept>
      </component>
      <component>
        <code>
          <coding>
            <system value="http://loinc.org"/>
            <code value="53034-5"/>
            <display value="Allelic state"/>
          </coding>
        </code>
        <valueCodeableConcept>
          <coding>
            <system value="http://loinc.org"/>
            <code value="LA6706-1"/>
            <display value="heterozygous"/>
          </coding>
        </valueCodeableConcept>
      </component>
      <component>
        <code>
          <coding>
            <system value="http://loinc.org"/>
            <code value="69547-8"/>
            <display value="Genomic Ref allele"/>
          </coding>
        </code>
        <valueString value="T"/>
      </component>
      <component>
        <code>
          <coding>
            <system value="http://loinc.org"/>
            <code value="69551-0"/>
            <display value="Genomic Alt allele"/>
          </coding>
        </code>
        <valueString value="C"/>
      </component>
      <component>
        <code>
          <coding>
            <system value="http://loinc.org"/>
            <code value="tbd-coordinate system"/>
            <display value="Genomic coordinate system"/>
          </coding>
        </code>
        <valueCodeableConcept>
          <coding>
            <system value="http://hl7.org/fhir/uv/genomics-reporting/CodeSystem/genetic-coordinate-system"/>
            <code value="1"/>
          </coding>
        </valueCodeableConcept>
      </component>
      <component>
        <code>
          <coding>
            <system value="http://loinc.org"/>
            <code value="81254-5"/>
            <display value="Genomic Allele start-end"/>
          </coding>
        </code>
        <valueRange>
          <low>
            <value value="18138238"/>
          </low>
        </valueRange>
      </component>
    </Observation>
  </contained>
  <contained>
    <Observation>
      <id value="dv-5c7f78cb70403"/>
      <meta>
        <profile value="http://hl7.org/fhir/uv/genomics-reporting/StructureDefinition/obs-described-variant"/>
      </meta>
      <status value="final"/>
      <category>
        <coding>
          <system value="http://terminology.hl7.org/CodeSystem/observation-category"/>
          <code value="laboratory"/>
        </coding>
      </category>
      <code>
        <coding>
          <system value="http://loinc.org"/>
          <code value="TBD-Described"/>
          <display value="Genetic variant assessment"/>
        </coding>
      </code>
      <subject>
        <reference value="Patient/HG03239"/>
      </subject>
      <issued value="2019-03-06T07:37:47+00:00"/>
      <valueCodeableConcept>
        <coding>
          <system value="http://loinc.org"/>
          <code value="LA9633-4"/>
          <display value="Present"/>
        </coding>
      </valueCodeableConcept>
      <component>
        <code>
          <coding>
            <system value="http://loinc.org"/>
            <code value="62374-4"/>
            <display value="Human reference sequence assembly version"/>
          </coding>
        </code>
        <valueCodeableConcept>
          <coding>
            <system value="http://loinc.org"/>
            <code value="LA14029-5"/>
            <display value="GRCh37"/>
          </coding>
        </valueCodeableConcept>
      </component>
      <component>
        <code>
          <coding>
            <system value="http://loinc.org"/>
            <code value="48013-7"/>
            <display value="Genomic reference sequence ID"/>
          </coding>
        </code>
        <valueCodeableConcept>
          <coding>
            <system value="http://www.ncbi.nlm.nih.gov/nuccore"/>
            <code value="NC_000006.11"/>
          </coding>
        </valueCodeableConcept>
      </component>
      <component>
        <code>
          <coding>
            <system value="http://loinc.org"/>
            <code value="53034-5"/>
            <display value="Allelic state"/>
          </coding>
        </code>
        <valueCodeableConcept>
          <coding>
            <system value="http://loinc.org"/>
            <code value="LA6706-1"/>
            <display value="heterozygous"/>
          </coding>
        </valueCodeableConcept>
      </component>
      <component>
        <code>
          <coding>
            <system value="http://loinc.org"/>
            <code value="69547-8"/>
            <display value="Genomic Ref allele"/>
          </coding>
        </code>
        <valueString value="A"/>
      </component>
      <component>
        <code>
          <coding>
            <system value="http://loinc.org"/>
            <code value="69551-0"/>
            <display value="Genomic Alt allele"/>
          </coding>
        </code>
        <valueString value="G"/>
      </component>
      <component>
        <code>
          <coding>
            <system value="http://loinc.org"/>
            <code value="tbd-coordinate system"/>
            <display value="Genomic coordinate system"/>
          </coding>
        </code>
        <valueCodeableConcept>
          <coding>
            <system value="http://hl7.org/fhir/uv/genomics-reporting/CodeSystem/genetic-coordinate-system"/>
            <code value="1"/>
          </coding>
        </valueCodeableConcept>
      </component>
      <component>
        <code>
          <coding>
            <system value="http://loinc.org"/>
            <code value="81254-5"/>
            <display value="Genomic Allele start-end"/>
          </coding>
        </code>
        <valueRange>
          <low>
            <value value="18138552"/>
          </low>
        </valueRange>
      </component>
    </Observation>
  </contained>
  <contained>
    <Observation>
      <id value="dv-5c7f78cb70500"/>
      <meta>
        <profile value="http://hl7.org/fhir/uv/genomics-reporting/StructureDefinition/obs-described-variant"/>
      </meta>
      <status value="final"/>
      <category>
        <coding>
          <system value="http://terminology.hl7.org/CodeSystem/observation-category"/>
          <code value="laboratory"/>
        </coding>
      </category>
      <code>
        <coding>
          <system value="http://loinc.org"/>
          <code value="TBD-Described"/>
          <display value="Genetic variant assessment"/>
        </coding>
      </code>
      <subject>
        <reference value="Patient/HG03239"/>
      </subject>
      <issued value="2019-03-06T07:37:47+00:00"/>
      <valueCodeableConcept>
        <coding>
          <system value="http://loinc.org"/>
          <code value="LA9633-4"/>
          <display value="Present"/>
        </coding>
      </valueCodeableConcept>
      <component>
        <code>
          <coding>
            <system value="http://loinc.org"/>
            <code value="62374-4"/>
            <display value="Human reference sequence assembly version"/>
          </coding>
        </code>
        <valueCodeableConcept>
          <coding>
            <system value="http://loinc.org"/>
            <code value="LA14029-5"/>
            <display value="GRCh37"/>
          </coding>
        </valueCodeableConcept>
      </component>
      <component>
        <code>
          <coding>
            <system value="http://loinc.org"/>
            <code value="48013-7"/>
            <display value="Genomic reference sequence ID"/>
          </coding>
        </code>
        <valueCodeableConcept>
          <coding>
            <system value="http://www.ncbi.nlm.nih.gov/nuccore"/>
            <code value="NC_000006.11"/>
          </coding>
        </valueCodeableConcept>
      </component>
      <component>
        <code>
          <coding>
            <system value="http://loinc.org"/>
            <code value="53034-5"/>
            <display value="Allelic state"/>
          </coding>
        </code>
        <valueCodeableConcept>
          <coding>
            <system value="http://loinc.org"/>
            <code value="LA6706-1"/>
            <display value="heterozygous"/>
          </coding>
        </valueCodeableConcept>
      </component>
      <component>
        <code>
          <coding>
            <system value="http://loinc.org"/>
            <code value="69547-8"/>
            <display value="Genomic Ref allele"/>
          </coding>
        </code>
        <valueString value="A"/>
      </component>
      <component>
        <code>
          <coding>
            <system value="http://loinc.org"/>
            <code value="69551-0"/>
            <display value="Genomic Alt allele"/>
          </coding>
        </code>
        <valueString value="C"/>
      </component>
      <component>
        <code>
          <coding>
            <system value="http://loinc.org"/>
            <code value="tbd-coordinate system"/>
            <display value="Genomic coordinate system"/>
          </coding>
        </code>
        <valueCodeableConcept>
          <coding>
            <system value="http://hl7.org/fhir/uv/genomics-reporting/CodeSystem/genetic-coordinate-system"/>
            <code value="1"/>
          </coding>
        </valueCodeableConcept>
      </component>
      <component>
        <code>
          <coding>
            <system value="http://loinc.org"/>
            <code value="81254-5"/>
            <display value="Genomic Allele start-end"/>
          </coding>
        </code>
        <valueRange>
          <low>
            <value value="18138827"/>
          </low>
        </valueRange>
      </component>
    </Observation>
  </contained>
  <contained>
    <Observation>
      <id value="dv-5c7f78cb70621"/>
      <meta>
        <profile value="http://hl7.org/fhir/uv/genomics-reporting/StructureDefinition/obs-described-variant"/>
      </meta>
      <status value="final"/>
      <category>
        <coding>
          <system value="http://terminology.hl7.org/CodeSystem/observation-category"/>
          <code value="laboratory"/>
        </coding>
      </category>
      <code>
        <coding>
          <system value="http://loinc.org"/>
          <code value="TBD-Described"/>
          <display value="Genetic variant assessment"/>
        </coding>
      </code>
      <subject>
        <reference value="Patient/HG03239"/>
      </subject>
      <issued value="2019-03-06T07:37:47+00:00"/>
      <valueCodeableConcept>
        <coding>
          <system value="http://loinc.org"/>
          <code value="LA9633-4"/>
          <display value="Present"/>
        </coding>
      </valueCodeableConcept>
      <component>
        <code>
          <coding>
            <system value="http://loinc.org"/>
            <code value="62374-4"/>
            <display value="Human reference sequence assembly version"/>
          </coding>
        </code>
        <valueCodeableConcept>
          <coding>
            <system value="http://loinc.org"/>
            <code value="LA14029-5"/>
            <display value="GRCh37"/>
          </coding>
        </valueCodeableConcept>
      </component>
      <component>
        <code>
          <coding>
            <system value="http://loinc.org"/>
            <code value="48013-7"/>
            <display value="Genomic reference sequence ID"/>
          </coding>
        </code>
        <valueCodeableConcept>
          <coding>
            <system value="http://www.ncbi.nlm.nih.gov/nuccore"/>
            <code value="NC_000006.11"/>
          </coding>
        </valueCodeableConcept>
      </component>
      <component>
        <code>
          <coding>
            <system value="http://loinc.org"/>
            <code value="53034-5"/>
            <display value="Allelic state"/>
          </coding>
        </code>
        <valueCodeableConcept>
          <coding>
            <system value="http://loinc.org"/>
            <code value="LA6706-1"/>
            <display value="heterozygous"/>
          </coding>
        </valueCodeableConcept>
      </component>
      <component>
        <code>
          <coding>
            <system value="http://loinc.org"/>
            <code value="69547-8"/>
            <display value="Genomic Ref allele"/>
          </coding>
        </code>
        <valueString value="G"/>
      </component>
      <component>
        <code>
          <coding>
            <system value="http://loinc.org"/>
            <code value="69551-0"/>
            <display value="Genomic Alt allele"/>
          </coding>
        </code>
        <valueString value="A"/>
      </component>
      <component>
        <code>
          <coding>
            <system value="http://loinc.org"/>
            <code value="tbd-coordinate system"/>
            <display value="Genomic coordinate system"/>
          </coding>
        </code>
        <valueCodeableConcept>
          <coding>
            <system value="http://hl7.org/fhir/uv/genomics-reporting/CodeSystem/genetic-coordinate-system"/>
            <code value="1"/>
          </coding>
        </valueCodeableConcept>
      </component>
      <component>
        <code>
          <coding>
            <system value="http://loinc.org"/>
            <code value="81254-5"/>
            <display value="Genomic Allele start-end"/>
          </coding>
        </code>
        <valueRange>
          <low>
            <value value="18139214"/>
          </low>
        </valueRange>
      </component>
    </Observation>
  </contained>
  <contained>
    <Observation>
      <id value="dv-5c7f78cb706ea"/>
      <meta>
        <profile value="http://hl7.org/fhir/uv/genomics-reporting/StructureDefinition/obs-described-variant"/>
      </meta>
      <status value="final"/>
      <category>
        <coding>
          <system value="http://terminology.hl7.org/CodeSystem/observation-category"/>
          <code value="laboratory"/>
        </coding>
      </category>
      <code>
        <coding>
          <system value="http://loinc.org"/>
          <code value="TBD-Described"/>
          <display value="Genetic variant assessment"/>
        </coding>
      </code>
      <subject>
        <reference value="Patient/HG03239"/>
      </subject>
      <issued value="2019-03-06T07:37:47+00:00"/>
      <valueCodeableConcept>
        <coding>
          <system value="http://loinc.org"/>
          <code value="LA9633-4"/>
          <display value="Present"/>
        </coding>
      </valueCodeableConcept>
      <component>
        <code>
          <coding>
            <system value="http://loinc.org"/>
            <code value="62374-4"/>
            <display value="Human reference sequence assembly version"/>
          </coding>
        </code>
        <valueCodeableConcept>
          <coding>
            <system value="http://loinc.org"/>
            <code value="LA14029-5"/>
            <display value="GRCh37"/>
          </coding>
        </valueCodeableConcept>
      </component>
      <component>
        <code>
          <coding>
            <system value="http://loinc.org"/>
            <code value="48013-7"/>
            <display value="Genomic reference sequence ID"/>
          </coding>
        </code>
        <valueCodeableConcept>
          <coding>
            <system value="http://www.ncbi.nlm.nih.gov/nuccore"/>
            <code value="NC_000006.11"/>
          </coding>
        </valueCodeableConcept>
      </component>
      <component>
        <code>
          <coding>
            <system value="http://loinc.org"/>
            <code value="53034-5"/>
            <display value="Allelic state"/>
          </coding>
        </code>
        <valueCodeableConcept>
          <coding>
            <system value="http://loinc.org"/>
            <code value="LA6706-1"/>
            <display value="heterozygous"/>
          </coding>
        </valueCodeableConcept>
      </component>
      <component>
        <code>
          <coding>
            <system value="http://loinc.org"/>
            <code value="69547-8"/>
            <display value="Genomic Ref allele"/>
          </coding>
        </code>
        <valueString value="T"/>
      </component>
      <component>
        <code>
          <coding>
            <system value="http://loinc.org"/>
            <code value="69551-0"/>
            <display value="Genomic Alt allele"/>
          </coding>
        </code>
        <valueString value="C"/>
      </component>
      <component>
        <code>
          <coding>
            <system value="http://loinc.org"/>
            <code value="tbd-coordinate system"/>
            <display value="Genomic coordinate system"/>
          </coding>
        </code>
        <valueCodeableConcept>
          <coding>
            <system value="http://hl7.org/fhir/uv/genomics-reporting/CodeSystem/genetic-coordinate-system"/>
            <code value="1"/>
          </coding>
        </valueCodeableConcept>
      </component>
      <component>
        <code>
          <coding>
            <system value="http://loinc.org"/>
            <code value="81254-5"/>
            <display value="Genomic Allele start-end"/>
          </coding>
        </code>
        <valueRange>
          <low>
            <value value="18140175"/>
          </low>
        </valueRange>
      </component>
    </Observation>
  </contained>
  <contained>
    <Observation>
      <id value="dv-5c7f78cb707b2"/>
      <meta>
        <profile value="http://hl7.org/fhir/uv/genomics-reporting/StructureDefinition/obs-described-variant"/>
      </meta>
      <status value="final"/>
      <category>
        <coding>
          <system value="http://terminology.hl7.org/CodeSystem/observation-category"/>
          <code value="laboratory"/>
        </coding>
      </category>
      <code>
        <coding>
          <system value="http://loinc.org"/>
          <code value="TBD-Described"/>
          <display value="Genetic variant assessment"/>
        </coding>
      </code>
      <subject>
        <reference value="Patient/HG03239"/>
      </subject>
      <issued value="2019-03-06T07:37:47+00:00"/>
      <valueCodeableConcept>
        <coding>
          <system value="http://loinc.org"/>
          <code value="LA9633-4"/>
          <display value="Present"/>
        </coding>
      </valueCodeableConcept>
      <component>
        <code>
          <coding>
            <system value="http://loinc.org"/>
            <code value="62374-4"/>
            <display value="Human reference sequence assembly version"/>
          </coding>
        </code>
        <valueCodeableConcept>
          <coding>
            <system value="http://loinc.org"/>
            <code value="LA14029-5"/>
            <display value="GRCh37"/>
          </coding>
        </valueCodeableConcept>
      </component>
      <component>
        <code>
          <coding>
            <system value="http://loinc.org"/>
            <code value="48013-7"/>
            <display value="Genomic reference sequence ID"/>
          </coding>
        </code>
        <valueCodeableConcept>
          <coding>
            <system value="http://www.ncbi.nlm.nih.gov/nuccore"/>
            <code value="NC_000006.11"/>
          </coding>
        </valueCodeableConcept>
      </component>
      <component>
        <code>
          <coding>
            <system value="http://loinc.org"/>
            <code value="53034-5"/>
            <display value="Allelic state"/>
          </coding>
        </code>
        <valueCodeableConcept>
          <coding>
            <system value="http://loinc.org"/>
            <code value="LA6706-1"/>
            <display value="heterozygous"/>
          </coding>
        </valueCodeableConcept>
      </component>
      <component>
        <code>
          <coding>
            <system value="http://loinc.org"/>
            <code value="69547-8"/>
            <display value="Genomic Ref allele"/>
          </coding>
        </code>
        <valueString value="T"/>
      </component>
      <component>
        <code>
          <coding>
            <system value="http://loinc.org"/>
            <code value="69551-0"/>
            <display value="Genomic Alt allele"/>
          </coding>
        </code>
        <valueString value="C"/>
      </component>
      <component>
        <code>
          <coding>
            <system value="http://loinc.org"/>
            <code value="tbd-coordinate system"/>
            <display value="Genomic coordinate system"/>
          </coding>
        </code>
        <valueCodeableConcept>
          <coding>
            <system value="http://hl7.org/fhir/uv/genomics-reporting/CodeSystem/genetic-coordinate-system"/>
            <code value="1"/>
          </coding>
        </valueCodeableConcept>
      </component>
      <component>
        <code>
          <coding>
            <system value="http://loinc.org"/>
            <code value="81254-5"/>
            <display value="Genomic Allele start-end"/>
          </coding>
        </code>
        <valueRange>
          <low>
            <value value="18140250"/>
          </low>
        </valueRange>
      </component>
    </Observation>
  </contained>
  <contained>
    <Observation>
      <id value="dv-5c7f78cb7087c"/>
      <meta>
        <profile value="http://hl7.org/fhir/uv/genomics-reporting/StructureDefinition/obs-described-variant"/>
      </meta>
      <status value="final"/>
      <category>
        <coding>
          <system value="http://terminology.hl7.org/CodeSystem/observation-category"/>
          <code value="laboratory"/>
        </coding>
      </category>
      <code>
        <coding>
          <system value="http://loinc.org"/>
          <code value="TBD-Described"/>
          <display value="Genetic variant assessment"/>
        </coding>
      </code>
      <subject>
        <reference value="Patient/HG03239"/>
      </subject>
      <issued value="2019-03-06T07:37:47+00:00"/>
      <valueCodeableConcept>
        <coding>
          <system value="http://loinc.org"/>
          <code value="LA9633-4"/>
          <display value="Present"/>
        </coding>
      </valueCodeableConcept>
      <component>
        <code>
          <coding>
            <system value="http://loinc.org"/>
            <code value="62374-4"/>
            <display value="Human reference sequence assembly version"/>
          </coding>
        </code>
        <valueCodeableConcept>
          <coding>
            <system value="http://loinc.org"/>
            <code value="LA14029-5"/>
            <display value="GRCh37"/>
          </coding>
        </valueCodeableConcept>
      </component>
      <component>
        <code>
          <coding>
            <system value="http://loinc.org"/>
            <code value="48013-7"/>
            <display value="Genomic reference sequence ID"/>
          </coding>
        </code>
        <valueCodeableConcept>
          <coding>
            <system value="http://www.ncbi.nlm.nih.gov/nuccore"/>
            <code value="NC_000006.11"/>
          </coding>
        </valueCodeableConcept>
      </component>
      <component>
        <code>
          <coding>
            <system value="http://loinc.org"/>
            <code value="53034-5"/>
            <display value="Allelic state"/>
          </coding>
        </code>
        <valueCodeableConcept>
          <coding>
            <system value="http://loinc.org"/>
            <code value="LA6706-1"/>
            <display value="heterozygous"/>
          </coding>
        </valueCodeableConcept>
      </component>
      <component>
        <code>
          <coding>
            <system value="http://loinc.org"/>
            <code value="69547-8"/>
            <display value="Genomic Ref allele"/>
          </coding>
        </code>
        <valueString value="G"/>
      </component>
      <component>
        <code>
          <coding>
            <system value="http://loinc.org"/>
            <code value="69551-0"/>
            <display value="Genomic Alt allele"/>
          </coding>
        </code>
        <valueString value="A"/>
      </component>
      <component>
        <code>
          <coding>
            <system value="http://loinc.org"/>
            <code value="tbd-coordinate system"/>
            <display value="Genomic coordinate system"/>
          </coding>
        </code>
        <valueCodeableConcept>
          <coding>
            <system value="http://hl7.org/fhir/uv/genomics-reporting/CodeSystem/genetic-coordinate-system"/>
            <code value="1"/>
          </coding>
        </valueCodeableConcept>
      </component>
      <component>
        <code>
          <coding>
            <system value="http://loinc.org"/>
            <code value="81254-5"/>
            <display value="Genomic Allele start-end"/>
          </coding>
        </code>
        <valueRange>
          <low>
            <value value="18140732"/>
          </low>
        </valueRange>
      </component>
    </Observation>
  </contained>
  <contained>
    <Observation>
      <id value="dv-5c7f78cb70943"/>
      <meta>
        <profile value="http://hl7.org/fhir/uv/genomics-reporting/StructureDefinition/obs-described-variant"/>
      </meta>
      <status value="final"/>
      <category>
        <coding>
          <system value="http://terminology.hl7.org/CodeSystem/observation-category"/>
          <code value="laboratory"/>
        </coding>
      </category>
      <code>
        <coding>
          <system value="http://loinc.org"/>
          <code value="TBD-Described"/>
          <display value="Genetic variant assessment"/>
        </coding>
      </code>
      <subject>
        <reference value="Patient/HG03239"/>
      </subject>
      <issued value="2019-03-06T07:37:47+00:00"/>
      <valueCodeableConcept>
        <coding>
          <system value="http://loinc.org"/>
          <code value="LA9633-4"/>
          <display value="Present"/>
        </coding>
      </valueCodeableConcept>
      <component>
        <code>
          <coding>
            <system value="http://loinc.org"/>
            <code value="62374-4"/>
            <display value="Human reference sequence assembly version"/>
          </coding>
        </code>
        <valueCodeableConcept>
          <coding>
            <system value="http://loinc.org"/>
            <code value="LA14029-5"/>
            <display value="GRCh37"/>
          </coding>
        </valueCodeableConcept>
      </component>
      <component>
        <code>
          <coding>
            <system value="http://loinc.org"/>
            <code value="48013-7"/>
            <display value="Genomic reference sequence ID"/>
          </coding>
        </code>
        <valueCodeableConcept>
          <coding>
            <system value="http://www.ncbi.nlm.nih.gov/nuccore"/>
            <code value="NC_000006.11"/>
          </coding>
        </valueCodeableConcept>
      </component>
      <component>
        <code>
          <coding>
            <system value="http://loinc.org"/>
            <code value="53034-5"/>
            <display value="Allelic state"/>
          </coding>
        </code>
        <valueCodeableConcept>
          <coding>
            <system value="http://loinc.org"/>
            <code value="LA6705-3"/>
            <display value="homozygous"/>
          </coding>
        </valueCodeableConcept>
      </component>
      <component>
        <code>
          <coding>
            <system value="http://loinc.org"/>
            <code value="69547-8"/>
            <display value="Genomic Ref allele"/>
          </coding>
        </code>
        <valueString value="T"/>
      </component>
      <component>
        <code>
          <coding>
            <system value="http://loinc.org"/>
            <code value="69551-0"/>
            <display value="Genomic Alt allele"/>
          </coding>
        </code>
        <valueString value="C"/>
      </component>
      <component>
        <code>
          <coding>
            <system value="http://loinc.org"/>
            <code value="tbd-coordinate system"/>
            <display value="Genomic coordinate system"/>
          </coding>
        </code>
        <valueCodeableConcept>
          <coding>
            <system value="http://hl7.org/fhir/uv/genomics-reporting/CodeSystem/genetic-coordinate-system"/>
            <code value="1"/>
          </coding>
        </valueCodeableConcept>
      </component>
      <component>
        <code>
          <coding>
            <system value="http://loinc.org"/>
            <code value="81254-5"/>
            <display value="Genomic Allele start-end"/>
          </coding>
        </code>
        <valueRange>
          <low>
            <value value="18141330"/>
          </low>
        </valueRange>
      </component>
    </Observation>
  </contained>
  <contained>
    <Observation>
      <id value="dv-5c7f78cb70a0c"/>
      <meta>
        <profile value="http://hl7.org/fhir/uv/genomics-reporting/StructureDefinition/obs-described-variant"/>
      </meta>
      <status value="final"/>
      <category>
        <coding>
          <system value="http://terminology.hl7.org/CodeSystem/observation-category"/>
          <code value="laboratory"/>
        </coding>
      </category>
      <code>
        <coding>
          <system value="http://loinc.org"/>
          <code value="TBD-Described"/>
          <display value="Genetic variant assessment"/>
        </coding>
      </code>
      <subject>
        <reference value="Patient/HG03239"/>
      </subject>
      <issued value="2019-03-06T07:37:47+00:00"/>
      <valueCodeableConcept>
        <coding>
          <system value="http://loinc.org"/>
          <code value="LA9633-4"/>
          <display value="Present"/>
        </coding>
      </valueCodeableConcept>
      <component>
        <code>
          <coding>
            <system value="http://loinc.org"/>
            <code value="62374-4"/>
            <display value="Human reference sequence assembly version"/>
          </coding>
        </code>
        <valueCodeableConcept>
          <coding>
            <system value="http://loinc.org"/>
            <code value="LA14029-5"/>
            <display value="GRCh37"/>
          </coding>
        </valueCodeableConcept>
      </component>
      <component>
        <code>
          <coding>
            <system value="http://loinc.org"/>
            <code value="48013-7"/>
            <display value="Genomic reference sequence ID"/>
          </coding>
        </code>
        <valueCodeableConcept>
          <coding>
            <system value="http://www.ncbi.nlm.nih.gov/nuccore"/>
            <code value="NC_000006.11"/>
          </coding>
        </valueCodeableConcept>
      </component>
      <component>
        <code>
          <coding>
            <system value="http://loinc.org"/>
            <code value="53034-5"/>
            <display value="Allelic state"/>
          </coding>
        </code>
        <valueCodeableConcept>
          <coding>
            <system value="http://loinc.org"/>
            <code value="LA6706-1"/>
            <display value="heterozygous"/>
          </coding>
        </valueCodeableConcept>
      </component>
      <component>
        <code>
          <coding>
            <system value="http://loinc.org"/>
            <code value="69547-8"/>
            <display value="Genomic Ref allele"/>
          </coding>
        </code>
        <valueString value="C"/>
      </component>
      <component>
        <code>
          <coding>
            <system value="http://loinc.org"/>
            <code value="69551-0"/>
            <display value="Genomic Alt allele"/>
          </coding>
        </code>
        <valueString value="T"/>
      </component>
      <component>
        <code>
          <coding>
            <system value="http://loinc.org"/>
            <code value="tbd-coordinate system"/>
            <display value="Genomic coordinate system"/>
          </coding>
        </code>
        <valueCodeableConcept>
          <coding>
            <system value="http://hl7.org/fhir/uv/genomics-reporting/CodeSystem/genetic-coordinate-system"/>
            <code value="1"/>
          </coding>
        </valueCodeableConcept>
      </component>
      <component>
        <code>
          <coding>
            <system value="http://loinc.org"/>
            <code value="81254-5"/>
            <display value="Genomic Allele start-end"/>
          </coding>
        </code>
        <valueRange>
          <low>
            <value value="18142205"/>
          </low>
        </valueRange>
      </component>
    </Observation>
  </contained>
  <contained>
    <Observation>
      <id value="dv-5c7f78cb70ad6"/>
      <meta>
        <profile value="http://hl7.org/fhir/uv/genomics-reporting/StructureDefinition/obs-described-variant"/>
      </meta>
      <status value="final"/>
      <category>
        <coding>
          <system value="http://terminology.hl7.org/CodeSystem/observation-category"/>
          <code value="laboratory"/>
        </coding>
      </category>
      <code>
        <coding>
          <system value="http://loinc.org"/>
          <code value="TBD-Described"/>
          <display value="Genetic variant assessment"/>
        </coding>
      </code>
      <subject>
        <reference value="Patient/HG03239"/>
      </subject>
      <issued value="2019-03-06T07:37:47+00:00"/>
      <valueCodeableConcept>
        <coding>
          <system value="http://loinc.org"/>
          <code value="LA9633-4"/>
          <display value="Present"/>
        </coding>
      </valueCodeableConcept>
      <component>
        <code>
          <coding>
            <system value="http://loinc.org"/>
            <code value="62374-4"/>
            <display value="Human reference sequence assembly version"/>
          </coding>
        </code>
        <valueCodeableConcept>
          <coding>
            <system value="http://loinc.org"/>
            <code value="LA14029-5"/>
            <display value="GRCh37"/>
          </coding>
        </valueCodeableConcept>
      </component>
      <component>
        <code>
          <coding>
            <system value="http://loinc.org"/>
            <code value="48013-7"/>
            <display value="Genomic reference sequence ID"/>
          </coding>
        </code>
        <valueCodeableConcept>
          <coding>
            <system value="http://www.ncbi.nlm.nih.gov/nuccore"/>
            <code value="NC_000006.11"/>
          </coding>
        </valueCodeableConcept>
      </component>
      <component>
        <code>
          <coding>
            <system value="http://loinc.org"/>
            <code value="53034-5"/>
            <display value="Allelic state"/>
          </coding>
        </code>
        <valueCodeableConcept>
          <coding>
            <system value="http://loinc.org"/>
            <code value="LA6706-1"/>
            <display value="heterozygous"/>
          </coding>
        </valueCodeableConcept>
      </component>
      <component>
        <code>
          <coding>
            <system value="http://loinc.org"/>
            <code value="69547-8"/>
            <display value="Genomic Ref allele"/>
          </coding>
        </code>
        <valueString value="A"/>
      </component>
      <component>
        <code>
          <coding>
            <system value="http://loinc.org"/>
            <code value="69551-0"/>
            <display value="Genomic Alt allele"/>
          </coding>
        </code>
        <valueString value="G"/>
      </component>
      <component>
        <code>
          <coding>
            <system value="http://loinc.org"/>
            <code value="tbd-coordinate system"/>
            <display value="Genomic coordinate system"/>
          </coding>
        </code>
        <valueCodeableConcept>
          <coding>
            <system value="http://hl7.org/fhir/uv/genomics-reporting/CodeSystem/genetic-coordinate-system"/>
            <code value="1"/>
          </coding>
        </valueCodeableConcept>
      </component>
      <component>
        <code>
          <coding>
            <system value="http://loinc.org"/>
            <code value="81254-5"/>
            <display value="Genomic Allele start-end"/>
          </coding>
        </code>
        <valueRange>
          <low>
            <value value="18142289"/>
          </low>
        </valueRange>
      </component>
    </Observation>
  </contained>
  <contained>
    <Observation>
      <id value="dv-5c7f78cb70b9e"/>
      <meta>
        <profile value="http://hl7.org/fhir/uv/genomics-reporting/StructureDefinition/obs-described-variant"/>
      </meta>
      <status value="final"/>
      <category>
        <coding>
          <system value="http://terminology.hl7.org/CodeSystem/observation-category"/>
          <code value="laboratory"/>
        </coding>
      </category>
      <code>
        <coding>
          <system value="http://loinc.org"/>
          <code value="TBD-Described"/>
          <display value="Genetic variant assessment"/>
        </coding>
      </code>
      <subject>
        <reference value="Patient/HG03239"/>
      </subject>
      <issued value="2019-03-06T07:37:47+00:00"/>
      <valueCodeableConcept>
        <coding>
          <system value="http://loinc.org"/>
          <code value="LA9633-4"/>
          <display value="Present"/>
        </coding>
      </valueCodeableConcept>
      <component>
        <code>
          <coding>
            <system value="http://loinc.org"/>
            <code value="62374-4"/>
            <display value="Human reference sequence assembly version"/>
          </coding>
        </code>
        <valueCodeableConcept>
          <coding>
            <system value="http://loinc.org"/>
            <code value="LA14029-5"/>
            <display value="GRCh37"/>
          </coding>
        </valueCodeableConcept>
      </component>
      <component>
        <code>
          <coding>
            <system value="http://loinc.org"/>
            <code value="48013-7"/>
            <display value="Genomic reference sequence ID"/>
          </coding>
        </code>
        <valueCodeableConcept>
          <coding>
            <system value="http://www.ncbi.nlm.nih.gov/nuccore"/>
            <code value="NC_000006.11"/>
          </coding>
        </valueCodeableConcept>
      </component>
      <component>
        <code>
          <coding>
            <system value="http://loinc.org"/>
            <code value="53034-5"/>
            <display value="Allelic state"/>
          </coding>
        </code>
        <valueCodeableConcept>
          <coding>
            <system value="http://loinc.org"/>
            <code value="LA6705-3"/>
            <display value="homozygous"/>
          </coding>
        </valueCodeableConcept>
      </component>
      <component>
        <code>
          <coding>
            <system value="http://loinc.org"/>
            <code value="69547-8"/>
            <display value="Genomic Ref allele"/>
          </coding>
        </code>
        <valueString value="A"/>
      </component>
      <component>
        <code>
          <coding>
            <system value="http://loinc.org"/>
            <code value="69551-0"/>
            <display value="Genomic Alt allele"/>
          </coding>
        </code>
        <valueString value="G"/>
      </component>
      <component>
        <code>
          <coding>
            <system value="http://loinc.org"/>
            <code value="tbd-coordinate system"/>
            <display value="Genomic coordinate system"/>
          </coding>
        </code>
        <valueCodeableConcept>
          <coding>
            <system value="http://hl7.org/fhir/uv/genomics-reporting/CodeSystem/genetic-coordinate-system"/>
            <code value="1"/>
          </coding>
        </valueCodeableConcept>
      </component>
      <component>
        <code>
          <coding>
            <system value="http://loinc.org"/>
            <code value="81254-5"/>
            <display value="Genomic Allele start-end"/>
          </coding>
        </code>
        <valueRange>
          <low>
            <value value="18142308"/>
          </low>
        </valueRange>
      </component>
    </Observation>
  </contained>
  <contained>
    <Observation>
      <id value="dv-5c7f78cb70c68"/>
      <meta>
        <profile value="http://hl7.org/fhir/uv/genomics-reporting/StructureDefinition/obs-described-variant"/>
      </meta>
      <status value="final"/>
      <category>
        <coding>
          <system value="http://terminology.hl7.org/CodeSystem/observation-category"/>
          <code value="laboratory"/>
        </coding>
      </category>
      <code>
        <coding>
          <system value="http://loinc.org"/>
          <code value="TBD-Described"/>
          <display value="Genetic variant assessment"/>
        </coding>
      </code>
      <subject>
        <reference value="Patient/HG03239"/>
      </subject>
      <issued value="2019-03-06T07:37:47+00:00"/>
      <valueCodeableConcept>
        <coding>
          <system value="http://loinc.org"/>
          <code value="LA9633-4"/>
          <display value="Present"/>
        </coding>
      </valueCodeableConcept>
      <component>
        <code>
          <coding>
            <system value="http://loinc.org"/>
            <code value="62374-4"/>
            <display value="Human reference sequence assembly version"/>
          </coding>
        </code>
        <valueCodeableConcept>
          <coding>
            <system value="http://loinc.org"/>
            <code value="LA14029-5"/>
            <display value="GRCh37"/>
          </coding>
        </valueCodeableConcept>
      </component>
      <component>
        <code>
          <coding>
            <system value="http://loinc.org"/>
            <code value="48013-7"/>
            <display value="Genomic reference sequence ID"/>
          </coding>
        </code>
        <valueCodeableConcept>
          <coding>
            <system value="http://www.ncbi.nlm.nih.gov/nuccore"/>
            <code value="NC_000006.11"/>
          </coding>
        </valueCodeableConcept>
      </component>
      <component>
        <code>
          <coding>
            <system value="http://loinc.org"/>
            <code value="53034-5"/>
            <display value="Allelic state"/>
          </coding>
        </code>
        <valueCodeableConcept>
          <coding>
            <system value="http://loinc.org"/>
            <code value="LA6706-1"/>
            <display value="heterozygous"/>
          </coding>
        </valueCodeableConcept>
      </component>
      <component>
        <code>
          <coding>
            <system value="http://loinc.org"/>
            <code value="69547-8"/>
            <display value="Genomic Ref allele"/>
          </coding>
        </code>
        <valueString value="A"/>
      </component>
      <component>
        <code>
          <coding>
            <system value="http://loinc.org"/>
            <code value="69551-0"/>
            <display value="Genomic Alt allele"/>
          </coding>
        </code>
        <valueString value="C"/>
      </component>
      <component>
        <code>
          <coding>
            <system value="http://loinc.org"/>
            <code value="tbd-coordinate system"/>
            <display value="Genomic coordinate system"/>
          </coding>
        </code>
        <valueCodeableConcept>
          <coding>
            <system value="http://hl7.org/fhir/uv/genomics-reporting/CodeSystem/genetic-coordinate-system"/>
            <code value="1"/>
          </coding>
        </valueCodeableConcept>
      </component>
      <component>
        <code>
          <coding>
            <system value="http://loinc.org"/>
            <code value="81254-5"/>
            <display value="Genomic Allele start-end"/>
          </coding>
        </code>
        <valueRange>
          <low>
            <value value="18142422"/>
          </low>
        </valueRange>
      </component>
    </Observation>
  </contained>
  <contained>
    <Observation>
      <id value="dv-5c7f78cb70d30"/>
      <meta>
        <profile value="http://hl7.org/fhir/uv/genomics-reporting/StructureDefinition/obs-described-variant"/>
      </meta>
      <status value="final"/>
      <category>
        <coding>
          <system value="http://terminology.hl7.org/CodeSystem/observation-category"/>
          <code value="laboratory"/>
        </coding>
      </category>
      <code>
        <coding>
          <system value="http://loinc.org"/>
          <code value="TBD-Described"/>
          <display value="Genetic variant assessment"/>
        </coding>
      </code>
      <subject>
        <reference value="Patient/HG03239"/>
      </subject>
      <issued value="2019-03-06T07:37:47+00:00"/>
      <valueCodeableConcept>
        <coding>
          <system value="http://loinc.org"/>
          <code value="LA9633-4"/>
          <display value="Present"/>
        </coding>
      </valueCodeableConcept>
      <component>
        <code>
          <coding>
            <system value="http://loinc.org"/>
            <code value="62374-4"/>
            <display value="Human reference sequence assembly version"/>
          </coding>
        </code>
        <valueCodeableConcept>
          <coding>
            <system value="http://loinc.org"/>
            <code value="LA14029-5"/>
            <display value="GRCh37"/>
          </coding>
        </valueCodeableConcept>
      </component>
      <component>
        <code>
          <coding>
            <system value="http://loinc.org"/>
            <code value="48013-7"/>
            <display value="Genomic reference sequence ID"/>
          </coding>
        </code>
        <valueCodeableConcept>
          <coding>
            <system value="http://www.ncbi.nlm.nih.gov/nuccore"/>
            <code value="NC_000006.11"/>
          </coding>
        </valueCodeableConcept>
      </component>
      <component>
        <code>
          <coding>
            <system value="http://loinc.org"/>
            <code value="53034-5"/>
            <display value="Allelic state"/>
          </coding>
        </code>
        <valueCodeableConcept>
          <coding>
            <system value="http://loinc.org"/>
            <code value="LA6706-1"/>
            <display value="heterozygous"/>
          </coding>
        </valueCodeableConcept>
      </component>
      <component>
        <code>
          <coding>
            <system value="http://loinc.org"/>
            <code value="69547-8"/>
            <display value="Genomic Ref allele"/>
          </coding>
        </code>
        <valueString value="A"/>
      </component>
      <component>
        <code>
          <coding>
            <system value="http://loinc.org"/>
            <code value="69551-0"/>
            <display value="Genomic Alt allele"/>
          </coding>
        </code>
        <valueString value="G"/>
      </component>
      <component>
        <code>
          <coding>
            <system value="http://loinc.org"/>
            <code value="tbd-coordinate system"/>
            <display value="Genomic coordinate system"/>
          </coding>
        </code>
        <valueCodeableConcept>
          <coding>
            <system value="http://hl7.org/fhir/uv/genomics-reporting/CodeSystem/genetic-coordinate-system"/>
            <code value="1"/>
          </coding>
        </valueCodeableConcept>
      </component>
      <component>
        <code>
          <coding>
            <system value="http://loinc.org"/>
            <code value="81254-5"/>
            <display value="Genomic Allele start-end"/>
          </coding>
        </code>
        <valueRange>
          <low>
            <value value="18143769"/>
          </low>
        </valueRange>
      </component>
    </Observation>
  </contained>
  <contained>
    <Observation>
      <id value="dv-5c7f78cb70df8"/>
      <meta>
        <profile value="http://hl7.org/fhir/uv/genomics-reporting/StructureDefinition/obs-described-variant"/>
      </meta>
      <status value="final"/>
      <category>
        <coding>
          <system value="http://terminology.hl7.org/CodeSystem/observation-category"/>
          <code value="laboratory"/>
        </coding>
      </category>
      <code>
        <coding>
          <system value="http://loinc.org"/>
          <code value="TBD-Described"/>
          <display value="Genetic variant assessment"/>
        </coding>
      </code>
      <subject>
        <reference value="Patient/HG03239"/>
      </subject>
      <issued value="2019-03-06T07:37:47+00:00"/>
      <valueCodeableConcept>
        <coding>
          <system value="http://loinc.org"/>
          <code value="LA9633-4"/>
          <display value="Present"/>
        </coding>
      </valueCodeableConcept>
      <component>
        <code>
          <coding>
            <system value="http://loinc.org"/>
            <code value="62374-4"/>
            <display value="Human reference sequence assembly version"/>
          </coding>
        </code>
        <valueCodeableConcept>
          <coding>
            <system value="http://loinc.org"/>
            <code value="LA14029-5"/>
            <display value="GRCh37"/>
          </coding>
        </valueCodeableConcept>
      </component>
      <component>
        <code>
          <coding>
            <system value="http://loinc.org"/>
            <code value="48013-7"/>
            <display value="Genomic reference sequence ID"/>
          </coding>
        </code>
        <valueCodeableConcept>
          <coding>
            <system value="http://www.ncbi.nlm.nih.gov/nuccore"/>
            <code value="NC_000006.11"/>
          </coding>
        </valueCodeableConcept>
      </component>
      <component>
        <code>
          <coding>
            <system value="http://loinc.org"/>
            <code value="53034-5"/>
            <display value="Allelic state"/>
          </coding>
        </code>
        <valueCodeableConcept>
          <coding>
            <system value="http://loinc.org"/>
            <code value="LA6706-1"/>
            <display value="heterozygous"/>
          </coding>
        </valueCodeableConcept>
      </component>
      <component>
        <code>
          <coding>
            <system value="http://loinc.org"/>
            <code value="69547-8"/>
            <display value="Genomic Ref allele"/>
          </coding>
        </code>
        <valueString value="A"/>
      </component>
      <component>
        <code>
          <coding>
            <system value="http://loinc.org"/>
            <code value="69551-0"/>
            <display value="Genomic Alt allele"/>
          </coding>
        </code>
        <valueString value="T"/>
      </component>
      <component>
        <code>
          <coding>
            <system value="http://loinc.org"/>
            <code value="tbd-coordinate system"/>
            <display value="Genomic coordinate system"/>
          </coding>
        </code>
        <valueCodeableConcept>
          <coding>
            <system value="http://hl7.org/fhir/uv/genomics-reporting/CodeSystem/genetic-coordinate-system"/>
            <code value="1"/>
          </coding>
        </valueCodeableConcept>
      </component>
      <component>
        <code>
          <coding>
            <system value="http://loinc.org"/>
            <code value="81254-5"/>
            <display value="Genomic Allele start-end"/>
          </coding>
        </code>
        <valueRange>
          <low>
            <value value="18144206"/>
          </low>
        </valueRange>
      </component>
    </Observation>
  </contained>
  <contained>
    <Observation>
      <id value="dv-5c7f78cb70ec1"/>
      <meta>
        <profile value="http://hl7.org/fhir/uv/genomics-reporting/StructureDefinition/obs-described-variant"/>
      </meta>
      <status value="final"/>
      <category>
        <coding>
          <system value="http://terminology.hl7.org/CodeSystem/observation-category"/>
          <code value="laboratory"/>
        </coding>
      </category>
      <code>
        <coding>
          <system value="http://loinc.org"/>
          <code value="TBD-Described"/>
          <display value="Genetic variant assessment"/>
        </coding>
      </code>
      <subject>
        <reference value="Patient/HG03239"/>
      </subject>
      <issued value="2019-03-06T07:37:47+00:00"/>
      <valueCodeableConcept>
        <coding>
          <system value="http://loinc.org"/>
          <code value="LA9633-4"/>
          <display value="Present"/>
        </coding>
      </valueCodeableConcept>
      <component>
        <code>
          <coding>
            <system value="http://loinc.org"/>
            <code value="62374-4"/>
            <display value="Human reference sequence assembly version"/>
          </coding>
        </code>
        <valueCodeableConcept>
          <coding>
            <system value="http://loinc.org"/>
            <code value="LA14029-5"/>
            <display value="GRCh37"/>
          </coding>
        </valueCodeableConcept>
      </component>
      <component>
        <code>
          <coding>
            <system value="http://loinc.org"/>
            <code value="48013-7"/>
            <display value="Genomic reference sequence ID"/>
          </coding>
        </code>
        <valueCodeableConcept>
          <coding>
            <system value="http://www.ncbi.nlm.nih.gov/nuccore"/>
            <code value="NC_000006.11"/>
          </coding>
        </valueCodeableConcept>
      </component>
      <component>
        <code>
          <coding>
            <system value="http://loinc.org"/>
            <code value="53034-5"/>
            <display value="Allelic state"/>
          </coding>
        </code>
        <valueCodeableConcept>
          <coding>
            <system value="http://loinc.org"/>
            <code value="LA6706-1"/>
            <display value="heterozygous"/>
          </coding>
        </valueCodeableConcept>
      </component>
      <component>
        <code>
          <coding>
            <system value="http://loinc.org"/>
            <code value="69547-8"/>
            <display value="Genomic Ref allele"/>
          </coding>
        </code>
        <valueString value="G"/>
      </component>
      <component>
        <code>
          <coding>
            <system value="http://loinc.org"/>
            <code value="69551-0"/>
            <display value="Genomic Alt allele"/>
          </coding>
        </code>
        <valueString value="GA"/>
      </component>
      <component>
        <code>
          <coding>
            <system value="http://loinc.org"/>
            <code value="tbd-coordinate system"/>
            <display value="Genomic coordinate system"/>
          </coding>
        </code>
        <valueCodeableConcept>
          <coding>
            <system value="http://hl7.org/fhir/uv/genomics-reporting/CodeSystem/genetic-coordinate-system"/>
            <code value="1"/>
          </coding>
        </valueCodeableConcept>
      </component>
      <component>
        <code>
          <coding>
            <system value="http://loinc.org"/>
            <code value="81254-5"/>
            <display value="Genomic Allele start-end"/>
          </coding>
        </code>
        <valueRange>
          <low>
            <value value="18144280"/>
          </low>
        </valueRange>
      </component>
    </Observation>
  </contained>
  <contained>
    <Observation>
      <id value="dv-5c7f78cb70f89"/>
      <meta>
        <profile value="http://hl7.org/fhir/uv/genomics-reporting/StructureDefinition/obs-described-variant"/>
      </meta>
      <status value="final"/>
      <category>
        <coding>
          <system value="http://terminology.hl7.org/CodeSystem/observation-category"/>
          <code value="laboratory"/>
        </coding>
      </category>
      <code>
        <coding>
          <system value="http://loinc.org"/>
          <code value="TBD-Described"/>
          <display value="Genetic variant assessment"/>
        </coding>
      </code>
      <subject>
        <reference value="Patient/HG03239"/>
      </subject>
      <issued value="2019-03-06T07:37:47+00:00"/>
      <valueCodeableConcept>
        <coding>
          <system value="http://loinc.org"/>
          <code value="LA9633-4"/>
          <display value="Present"/>
        </coding>
      </valueCodeableConcept>
      <component>
        <code>
          <coding>
            <system value="http://loinc.org"/>
            <code value="62374-4"/>
            <display value="Human reference sequence assembly version"/>
          </coding>
        </code>
        <valueCodeableConcept>
          <coding>
            <system value="http://loinc.org"/>
            <code value="LA14029-5"/>
            <display value="GRCh37"/>
          </coding>
        </valueCodeableConcept>
      </component>
      <component>
        <code>
          <coding>
            <system value="http://loinc.org"/>
            <code value="48013-7"/>
            <display value="Genomic reference sequence ID"/>
          </coding>
        </code>
        <valueCodeableConcept>
          <coding>
            <system value="http://www.ncbi.nlm.nih.gov/nuccore"/>
            <code value="NC_000006.11"/>
          </coding>
        </valueCodeableConcept>
      </component>
      <component>
        <code>
          <coding>
            <system value="http://loinc.org"/>
            <code value="53034-5"/>
            <display value="Allelic state"/>
          </coding>
        </code>
        <valueCodeableConcept>
          <coding>
            <system value="http://loinc.org"/>
            <code value="LA6706-1"/>
            <display value="heterozygous"/>
          </coding>
        </valueCodeableConcept>
      </component>
      <component>
        <code>
          <coding>
            <system value="http://loinc.org"/>
            <code value="69547-8"/>
            <display value="Genomic Ref allele"/>
          </coding>
        </code>
        <valueString value="T"/>
      </component>
      <component>
        <code>
          <coding>
            <system value="http://loinc.org"/>
            <code value="69551-0"/>
            <display value="Genomic Alt allele"/>
          </coding>
        </code>
        <valueString value="A"/>
      </component>
      <component>
        <code>
          <coding>
            <system value="http://loinc.org"/>
            <code value="tbd-coordinate system"/>
            <display value="Genomic coordinate system"/>
          </coding>
        </code>
        <valueCodeableConcept>
          <coding>
            <system value="http://hl7.org/fhir/uv/genomics-reporting/CodeSystem/genetic-coordinate-system"/>
            <code value="1"/>
          </coding>
        </valueCodeableConcept>
      </component>
      <component>
        <code>
          <coding>
            <system value="http://loinc.org"/>
            <code value="81254-5"/>
            <display value="Genomic Allele start-end"/>
          </coding>
        </code>
        <valueRange>
          <low>
            <value value="18144430"/>
          </low>
        </valueRange>
      </component>
    </Observation>
  </contained>
  <contained>
    <Observation>
      <id value="dv-5c7f78cb71051"/>
      <meta>
        <profile value="http://hl7.org/fhir/uv/genomics-reporting/StructureDefinition/obs-described-variant"/>
      </meta>
      <status value="final"/>
      <category>
        <coding>
          <system value="http://terminology.hl7.org/CodeSystem/observation-category"/>
          <code value="laboratory"/>
        </coding>
      </category>
      <code>
        <coding>
          <system value="http://loinc.org"/>
          <code value="TBD-Described"/>
          <display value="Genetic variant assessment"/>
        </coding>
      </code>
      <subject>
        <reference value="Patient/HG03239"/>
      </subject>
      <issued value="2019-03-06T07:37:47+00:00"/>
      <valueCodeableConcept>
        <coding>
          <system value="http://loinc.org"/>
          <code value="LA9633-4"/>
          <display value="Present"/>
        </coding>
      </valueCodeableConcept>
      <component>
        <code>
          <coding>
            <system value="http://loinc.org"/>
            <code value="62374-4"/>
            <display value="Human reference sequence assembly version"/>
          </coding>
        </code>
        <valueCodeableConcept>
          <coding>
            <system value="http://loinc.org"/>
            <code value="LA14029-5"/>
            <display value="GRCh37"/>
          </coding>
        </valueCodeableConcept>
      </component>
      <component>
        <code>
          <coding>
            <system value="http://loinc.org"/>
            <code value="48013-7"/>
            <display value="Genomic reference sequence ID"/>
          </coding>
        </code>
        <valueCodeableConcept>
          <coding>
            <system value="http://www.ncbi.nlm.nih.gov/nuccore"/>
            <code value="NC_000006.11"/>
          </coding>
        </valueCodeableConcept>
      </component>
      <component>
        <code>
          <coding>
            <system value="http://loinc.org"/>
            <code value="53034-5"/>
            <display value="Allelic state"/>
          </coding>
        </code>
        <valueCodeableConcept>
          <coding>
            <system value="http://loinc.org"/>
            <code value="LA6706-1"/>
            <display value="heterozygous"/>
          </coding>
        </valueCodeableConcept>
      </component>
      <component>
        <code>
          <coding>
            <system value="http://loinc.org"/>
            <code value="69547-8"/>
            <display value="Genomic Ref allele"/>
          </coding>
        </code>
        <valueString value="A"/>
      </component>
      <component>
        <code>
          <coding>
            <system value="http://loinc.org"/>
            <code value="69551-0"/>
            <display value="Genomic Alt allele"/>
          </coding>
        </code>
        <valueString value="T"/>
      </component>
      <component>
        <code>
          <coding>
            <system value="http://loinc.org"/>
            <code value="tbd-coordinate system"/>
            <display value="Genomic coordinate system"/>
          </coding>
        </code>
        <valueCodeableConcept>
          <coding>
            <system value="http://hl7.org/fhir/uv/genomics-reporting/CodeSystem/genetic-coordinate-system"/>
            <code value="1"/>
          </coding>
        </valueCodeableConcept>
      </component>
      <component>
        <code>
          <coding>
            <system value="http://loinc.org"/>
            <code value="81254-5"/>
            <display value="Genomic Allele start-end"/>
          </coding>
        </code>
        <valueRange>
          <low>
            <value value="18144959"/>
          </low>
        </valueRange>
      </component>
    </Observation>
  </contained>
  <contained>
    <Observation>
      <id value="dv-5c7f78cb7111a"/>
      <meta>
        <profile value="http://hl7.org/fhir/uv/genomics-reporting/StructureDefinition/obs-described-variant"/>
      </meta>
      <status value="final"/>
      <category>
        <coding>
          <system value="http://terminology.hl7.org/CodeSystem/observation-category"/>
          <code value="laboratory"/>
        </coding>
      </category>
      <code>
        <coding>
          <system value="http://loinc.org"/>
          <code value="TBD-Described"/>
          <display value="Genetic variant assessment"/>
        </coding>
      </code>
      <subject>
        <reference value="Patient/HG03239"/>
      </subject>
      <issued value="2019-03-06T07:37:47+00:00"/>
      <valueCodeableConcept>
        <coding>
          <system value="http://loinc.org"/>
          <code value="LA9633-4"/>
          <display value="Present"/>
        </coding>
      </valueCodeableConcept>
      <component>
        <code>
          <coding>
            <system value="http://loinc.org"/>
            <code value="62374-4"/>
            <display value="Human reference sequence assembly version"/>
          </coding>
        </code>
        <valueCodeableConcept>
          <coding>
            <system value="http://loinc.org"/>
            <code value="LA14029-5"/>
            <display value="GRCh37"/>
          </coding>
        </valueCodeableConcept>
      </component>
      <component>
        <code>
          <coding>
            <system value="http://loinc.org"/>
            <code value="48013-7"/>
            <display value="Genomic reference sequence ID"/>
          </coding>
        </code>
        <valueCodeableConcept>
          <coding>
            <system value="http://www.ncbi.nlm.nih.gov/nuccore"/>
            <code value="NC_000006.11"/>
          </coding>
        </valueCodeableConcept>
      </component>
      <component>
        <code>
          <coding>
            <system value="http://loinc.org"/>
            <code value="53034-5"/>
            <display value="Allelic state"/>
          </coding>
        </code>
        <valueCodeableConcept>
          <coding>
            <system value="http://loinc.org"/>
            <code value="LA6706-1"/>
            <display value="heterozygous"/>
          </coding>
        </valueCodeableConcept>
      </component>
      <component>
        <code>
          <coding>
            <system value="http://loinc.org"/>
            <code value="69547-8"/>
            <display value="Genomic Ref allele"/>
          </coding>
        </code>
        <valueString value="A"/>
      </component>
      <component>
        <code>
          <coding>
            <system value="http://loinc.org"/>
            <code value="69551-0"/>
            <display value="Genomic Alt allele"/>
          </coding>
        </code>
        <valueString value="T"/>
      </component>
      <component>
        <code>
          <coding>
            <system value="http://loinc.org"/>
            <code value="tbd-coordinate system"/>
            <display value="Genomic coordinate system"/>
          </coding>
        </code>
        <valueCodeableConcept>
          <coding>
            <system value="http://hl7.org/fhir/uv/genomics-reporting/CodeSystem/genetic-coordinate-system"/>
            <code value="1"/>
          </coding>
        </valueCodeableConcept>
      </component>
      <component>
        <code>
          <coding>
            <system value="http://loinc.org"/>
            <code value="81254-5"/>
            <display value="Genomic Allele start-end"/>
          </coding>
        </code>
        <valueRange>
          <low>
            <value value="18145372"/>
          </low>
        </valueRange>
      </component>
    </Observation>
  </contained>
  <contained>
    <Observation>
      <id value="dv-5c7f78cb711e4"/>
      <meta>
        <profile value="http://hl7.org/fhir/uv/genomics-reporting/StructureDefinition/obs-described-variant"/>
      </meta>
      <status value="final"/>
      <category>
        <coding>
          <system value="http://terminology.hl7.org/CodeSystem/observation-category"/>
          <code value="laboratory"/>
        </coding>
      </category>
      <code>
        <coding>
          <system value="http://loinc.org"/>
          <code value="TBD-Described"/>
          <display value="Genetic variant assessment"/>
        </coding>
      </code>
      <subject>
        <reference value="Patient/HG03239"/>
      </subject>
      <issued value="2019-03-06T07:37:47+00:00"/>
      <valueCodeableConcept>
        <coding>
          <system value="http://loinc.org"/>
          <code value="LA9633-4"/>
          <display value="Present"/>
        </coding>
      </valueCodeableConcept>
      <component>
        <code>
          <coding>
            <system value="http://loinc.org"/>
            <code value="62374-4"/>
            <display value="Human reference sequence assembly version"/>
          </coding>
        </code>
        <valueCodeableConcept>
          <coding>
            <system value="http://loinc.org"/>
            <code value="LA14029-5"/>
            <display value="GRCh37"/>
          </coding>
        </valueCodeableConcept>
      </component>
      <component>
        <code>
          <coding>
            <system value="http://loinc.org"/>
            <code value="48013-7"/>
            <display value="Genomic reference sequence ID"/>
          </coding>
        </code>
        <valueCodeableConcept>
          <coding>
            <system value="http://www.ncbi.nlm.nih.gov/nuccore"/>
            <code value="NC_000006.11"/>
          </coding>
        </valueCodeableConcept>
      </component>
      <component>
        <code>
          <coding>
            <system value="http://loinc.org"/>
            <code value="53034-5"/>
            <display value="Allelic state"/>
          </coding>
        </code>
        <valueCodeableConcept>
          <coding>
            <system value="http://loinc.org"/>
            <code value="LA6706-1"/>
            <display value="heterozygous"/>
          </coding>
        </valueCodeableConcept>
      </component>
      <component>
        <code>
          <coding>
            <system value="http://loinc.org"/>
            <code value="69547-8"/>
            <display value="Genomic Ref allele"/>
          </coding>
        </code>
        <valueString value="A"/>
      </component>
      <component>
        <code>
          <coding>
            <system value="http://loinc.org"/>
            <code value="69551-0"/>
            <display value="Genomic Alt allele"/>
          </coding>
        </code>
        <valueString value="G"/>
      </component>
      <component>
        <code>
          <coding>
            <system value="http://loinc.org"/>
            <code value="tbd-coordinate system"/>
            <display value="Genomic coordinate system"/>
          </coding>
        </code>
        <valueCodeableConcept>
          <coding>
            <system value="http://hl7.org/fhir/uv/genomics-reporting/CodeSystem/genetic-coordinate-system"/>
            <code value="1"/>
          </coding>
        </valueCodeableConcept>
      </component>
      <component>
        <code>
          <coding>
            <system value="http://loinc.org"/>
            <code value="81254-5"/>
            <display value="Genomic Allele start-end"/>
          </coding>
        </code>
        <valueRange>
          <low>
            <value value="18145411"/>
          </low>
        </valueRange>
      </component>
    </Observation>
  </contained>
  <contained>
    <Observation>
      <id value="dv-5c7f78cb712ac"/>
      <meta>
        <profile value="http://hl7.org/fhir/uv/genomics-reporting/StructureDefinition/obs-described-variant"/>
      </meta>
      <status value="final"/>
      <category>
        <coding>
          <system value="http://terminology.hl7.org/CodeSystem/observation-category"/>
          <code value="laboratory"/>
        </coding>
      </category>
      <code>
        <coding>
          <system value="http://loinc.org"/>
          <code value="TBD-Described"/>
          <display value="Genetic variant assessment"/>
        </coding>
      </code>
      <subject>
        <reference value="Patient/HG03239"/>
      </subject>
      <issued value="2019-03-06T07:37:47+00:00"/>
      <valueCodeableConcept>
        <coding>
          <system value="http://loinc.org"/>
          <code value="LA9633-4"/>
          <display value="Present"/>
        </coding>
      </valueCodeableConcept>
      <component>
        <code>
          <coding>
            <system value="http://loinc.org"/>
            <code value="62374-4"/>
            <display value="Human reference sequence assembly version"/>
          </coding>
        </code>
        <valueCodeableConcept>
          <coding>
            <system value="http://loinc.org"/>
            <code value="LA14029-5"/>
            <display value="GRCh37"/>
          </coding>
        </valueCodeableConcept>
      </component>
      <component>
        <code>
          <coding>
            <system value="http://loinc.org"/>
            <code value="48013-7"/>
            <display value="Genomic reference sequence ID"/>
          </coding>
        </code>
        <valueCodeableConcept>
          <coding>
            <system value="http://www.ncbi.nlm.nih.gov/nuccore"/>
            <code value="NC_000006.11"/>
          </coding>
        </valueCodeableConcept>
      </component>
      <component>
        <code>
          <coding>
            <system value="http://loinc.org"/>
            <code value="53034-5"/>
            <display value="Allelic state"/>
          </coding>
        </code>
        <valueCodeableConcept>
          <coding>
            <system value="http://loinc.org"/>
            <code value="LA6706-1"/>
            <display value="heterozygous"/>
          </coding>
        </valueCodeableConcept>
      </component>
      <component>
        <code>
          <coding>
            <system value="http://loinc.org"/>
            <code value="69547-8"/>
            <display value="Genomic Ref allele"/>
          </coding>
        </code>
        <valueString value="T"/>
      </component>
      <component>
        <code>
          <coding>
            <system value="http://loinc.org"/>
            <code value="69551-0"/>
            <display value="Genomic Alt allele"/>
          </coding>
        </code>
        <valueString value="C"/>
      </component>
      <component>
        <code>
          <coding>
            <system value="http://loinc.org"/>
            <code value="tbd-coordinate system"/>
            <display value="Genomic coordinate system"/>
          </coding>
        </code>
        <valueCodeableConcept>
          <coding>
            <system value="http://hl7.org/fhir/uv/genomics-reporting/CodeSystem/genetic-coordinate-system"/>
            <code value="1"/>
          </coding>
        </valueCodeableConcept>
      </component>
      <component>
        <code>
          <coding>
            <system value="http://loinc.org"/>
            <code value="81254-5"/>
            <display value="Genomic Allele start-end"/>
          </coding>
        </code>
        <valueRange>
          <low>
            <value value="18146039"/>
          </low>
        </valueRange>
      </component>
    </Observation>
  </contained>
  <contained>
    <Observation>
      <id value="dv-5c7f78cb71377"/>
      <meta>
        <profile value="http://hl7.org/fhir/uv/genomics-reporting/StructureDefinition/obs-described-variant"/>
      </meta>
      <status value="final"/>
      <category>
        <coding>
          <system value="http://terminology.hl7.org/CodeSystem/observation-category"/>
          <code value="laboratory"/>
        </coding>
      </category>
      <code>
        <coding>
          <system value="http://loinc.org"/>
          <code value="TBD-Described"/>
          <display value="Genetic variant assessment"/>
        </coding>
      </code>
      <subject>
        <reference value="Patient/HG03239"/>
      </subject>
      <issued value="2019-03-06T07:37:47+00:00"/>
      <valueCodeableConcept>
        <coding>
          <system value="http://loinc.org"/>
          <code value="LA9633-4"/>
          <display value="Present"/>
        </coding>
      </valueCodeableConcept>
      <component>
        <code>
          <coding>
            <system value="http://loinc.org"/>
            <code value="62374-4"/>
            <display value="Human reference sequence assembly version"/>
          </coding>
        </code>
        <valueCodeableConcept>
          <coding>
            <system value="http://loinc.org"/>
            <code value="LA14029-5"/>
            <display value="GRCh37"/>
          </coding>
        </valueCodeableConcept>
      </component>
      <component>
        <code>
          <coding>
            <system value="http://loinc.org"/>
            <code value="48013-7"/>
            <display value="Genomic reference sequence ID"/>
          </coding>
        </code>
        <valueCodeableConcept>
          <coding>
            <system value="http://www.ncbi.nlm.nih.gov/nuccore"/>
            <code value="NC_000006.11"/>
          </coding>
        </valueCodeableConcept>
      </component>
      <component>
        <code>
          <coding>
            <system value="http://loinc.org"/>
            <code value="53034-5"/>
            <display value="Allelic state"/>
          </coding>
        </code>
        <valueCodeableConcept>
          <coding>
            <system value="http://loinc.org"/>
            <code value="LA6706-1"/>
            <display value="heterozygous"/>
          </coding>
        </valueCodeableConcept>
      </component>
      <component>
        <code>
          <coding>
            <system value="http://loinc.org"/>
            <code value="69547-8"/>
            <display value="Genomic Ref allele"/>
          </coding>
        </code>
        <valueString value="C"/>
      </component>
      <component>
        <code>
          <coding>
            <system value="http://loinc.org"/>
            <code value="69551-0"/>
            <display value="Genomic Alt allele"/>
          </coding>
        </code>
        <valueString value="T"/>
      </component>
      <component>
        <code>
          <coding>
            <system value="http://loinc.org"/>
            <code value="tbd-coordinate system"/>
            <display value="Genomic coordinate system"/>
          </coding>
        </code>
        <valueCodeableConcept>
          <coding>
            <system value="http://hl7.org/fhir/uv/genomics-reporting/CodeSystem/genetic-coordinate-system"/>
            <code value="1"/>
          </coding>
        </valueCodeableConcept>
      </component>
      <component>
        <code>
          <coding>
            <system value="http://loinc.org"/>
            <code value="81254-5"/>
            <display value="Genomic Allele start-end"/>
          </coding>
        </code>
        <valueRange>
          <low>
            <value value="18146673"/>
          </low>
        </valueRange>
      </component>
    </Observation>
  </contained>
  <contained>
    <Observation>
      <id value="dv-5c7f78cb7143f"/>
      <meta>
        <profile value="http://hl7.org/fhir/uv/genomics-reporting/StructureDefinition/obs-described-variant"/>
      </meta>
      <status value="final"/>
      <category>
        <coding>
          <system value="http://terminology.hl7.org/CodeSystem/observation-category"/>
          <code value="laboratory"/>
        </coding>
      </category>
      <code>
        <coding>
          <system value="http://loinc.org"/>
          <code value="TBD-Described"/>
          <display value="Genetic variant assessment"/>
        </coding>
      </code>
      <subject>
        <reference value="Patient/HG03239"/>
      </subject>
      <issued value="2019-03-06T07:37:47+00:00"/>
      <valueCodeableConcept>
        <coding>
          <system value="http://loinc.org"/>
          <code value="LA9633-4"/>
          <display value="Present"/>
        </coding>
      </valueCodeableConcept>
      <component>
        <code>
          <coding>
            <system value="http://loinc.org"/>
            <code value="62374-4"/>
            <display value="Human reference sequence assembly version"/>
          </coding>
        </code>
        <valueCodeableConcept>
          <coding>
            <system value="http://loinc.org"/>
            <code value="LA14029-5"/>
            <display value="GRCh37"/>
          </coding>
        </valueCodeableConcept>
      </component>
      <component>
        <code>
          <coding>
            <system value="http://loinc.org"/>
            <code value="48013-7"/>
            <display value="Genomic reference sequence ID"/>
          </coding>
        </code>
        <valueCodeableConcept>
          <coding>
            <system value="http://www.ncbi.nlm.nih.gov/nuccore"/>
            <code value="NC_000006.11"/>
          </coding>
        </valueCodeableConcept>
      </component>
      <component>
        <code>
          <coding>
            <system value="http://loinc.org"/>
            <code value="53034-5"/>
            <display value="Allelic state"/>
          </coding>
        </code>
        <valueCodeableConcept>
          <coding>
            <system value="http://loinc.org"/>
            <code value="LA6706-1"/>
            <display value="heterozygous"/>
          </coding>
        </valueCodeableConcept>
      </component>
      <component>
        <code>
          <coding>
            <system value="http://loinc.org"/>
            <code value="69547-8"/>
            <display value="Genomic Ref allele"/>
          </coding>
        </code>
        <valueString value="G"/>
      </component>
      <component>
        <code>
          <coding>
            <system value="http://loinc.org"/>
            <code value="69551-0"/>
            <display value="Genomic Alt allele"/>
          </coding>
        </code>
        <valueString value="A"/>
      </component>
      <component>
        <code>
          <coding>
            <system value="http://loinc.org"/>
            <code value="tbd-coordinate system"/>
            <display value="Genomic coordinate system"/>
          </coding>
        </code>
        <valueCodeableConcept>
          <coding>
            <system value="http://hl7.org/fhir/uv/genomics-reporting/CodeSystem/genetic-coordinate-system"/>
            <code value="1"/>
          </coding>
        </valueCodeableConcept>
      </component>
      <component>
        <code>
          <coding>
            <system value="http://loinc.org"/>
            <code value="81254-5"/>
            <display value="Genomic Allele start-end"/>
          </coding>
        </code>
        <valueRange>
          <low>
            <value value="18148019"/>
          </low>
        </valueRange>
      </component>
    </Observation>
  </contained>
  <contained>
    <Observation>
      <id value="dv-5c7f78cb71512"/>
      <meta>
        <profile value="http://hl7.org/fhir/uv/genomics-reporting/StructureDefinition/obs-described-variant"/>
      </meta>
      <status value="final"/>
      <category>
        <coding>
          <system value="http://terminology.hl7.org/CodeSystem/observation-category"/>
          <code value="laboratory"/>
        </coding>
      </category>
      <code>
        <coding>
          <system value="http://loinc.org"/>
          <code value="TBD-Described"/>
          <display value="Genetic variant assessment"/>
        </coding>
      </code>
      <subject>
        <reference value="Patient/HG03239"/>
      </subject>
      <issued value="2019-03-06T07:37:47+00:00"/>
      <valueCodeableConcept>
        <coding>
          <system value="http://loinc.org"/>
          <code value="LA9633-4"/>
          <display value="Present"/>
        </coding>
      </valueCodeableConcept>
      <component>
        <code>
          <coding>
            <system value="http://loinc.org"/>
            <code value="62374-4"/>
            <display value="Human reference sequence assembly version"/>
          </coding>
        </code>
        <valueCodeableConcept>
          <coding>
            <system value="http://loinc.org"/>
            <code value="LA14029-5"/>
            <display value="GRCh37"/>
          </coding>
        </valueCodeableConcept>
      </component>
      <component>
        <code>
          <coding>
            <system value="http://loinc.org"/>
            <code value="48013-7"/>
            <display value="Genomic reference sequence ID"/>
          </coding>
        </code>
        <valueCodeableConcept>
          <coding>
            <system value="http://www.ncbi.nlm.nih.gov/nuccore"/>
            <code value="NC_000006.11"/>
          </coding>
        </valueCodeableConcept>
      </component>
      <component>
        <code>
          <coding>
            <system value="http://loinc.org"/>
            <code value="53034-5"/>
            <display value="Allelic state"/>
          </coding>
        </code>
        <valueCodeableConcept>
          <coding>
            <system value="http://loinc.org"/>
            <code value="LA6706-1"/>
            <display value="heterozygous"/>
          </coding>
        </valueCodeableConcept>
      </component>
      <component>
        <code>
          <coding>
            <system value="http://loinc.org"/>
            <code value="69547-8"/>
            <display value="Genomic Ref allele"/>
          </coding>
        </code>
        <valueString value="T"/>
      </component>
      <component>
        <code>
          <coding>
            <system value="http://loinc.org"/>
            <code value="69551-0"/>
            <display value="Genomic Alt allele"/>
          </coding>
        </code>
        <valueString value="A"/>
      </component>
      <component>
        <code>
          <coding>
            <system value="http://loinc.org"/>
            <code value="tbd-coordinate system"/>
            <display value="Genomic coordinate system"/>
          </coding>
        </code>
        <valueCodeableConcept>
          <coding>
            <system value="http://hl7.org/fhir/uv/genomics-reporting/CodeSystem/genetic-coordinate-system"/>
            <code value="1"/>
          </coding>
        </valueCodeableConcept>
      </component>
      <component>
        <code>
          <coding>
            <system value="http://loinc.org"/>
            <code value="81254-5"/>
            <display value="Genomic Allele start-end"/>
          </coding>
        </code>
        <valueRange>
          <low>
            <value value="18148247"/>
          </low>
        </valueRange>
      </component>
    </Observation>
  </contained>
  <contained>
    <Observation>
      <id value="dv-5c7f78cb715d7"/>
      <meta>
        <profile value="http://hl7.org/fhir/uv/genomics-reporting/StructureDefinition/obs-described-variant"/>
      </meta>
      <status value="final"/>
      <category>
        <coding>
          <system value="http://terminology.hl7.org/CodeSystem/observation-category"/>
          <code value="laboratory"/>
        </coding>
      </category>
      <code>
        <coding>
          <system value="http://loinc.org"/>
          <code value="TBD-Described"/>
          <display value="Genetic variant assessment"/>
        </coding>
      </code>
      <subject>
        <reference value="Patient/HG03239"/>
      </subject>
      <issued value="2019-03-06T07:37:47+00:00"/>
      <valueCodeableConcept>
        <coding>
          <system value="http://loinc.org"/>
          <code value="LA9633-4"/>
          <display value="Present"/>
        </coding>
      </valueCodeableConcept>
      <component>
        <code>
          <coding>
            <system value="http://loinc.org"/>
            <code value="62374-4"/>
            <display value="Human reference sequence assembly version"/>
          </coding>
        </code>
        <valueCodeableConcept>
          <coding>
            <system value="http://loinc.org"/>
            <code value="LA14029-5"/>
            <display value="GRCh37"/>
          </coding>
        </valueCodeableConcept>
      </component>
      <component>
        <code>
          <coding>
            <system value="http://loinc.org"/>
            <code value="48013-7"/>
            <display value="Genomic reference sequence ID"/>
          </coding>
        </code>
        <valueCodeableConcept>
          <coding>
            <system value="http://www.ncbi.nlm.nih.gov/nuccore"/>
            <code value="NC_000006.11"/>
          </coding>
        </valueCodeableConcept>
      </component>
      <component>
        <code>
          <coding>
            <system value="http://loinc.org"/>
            <code value="53034-5"/>
            <display value="Allelic state"/>
          </coding>
        </code>
        <valueCodeableConcept>
          <coding>
            <system value="http://loinc.org"/>
            <code value="LA6705-3"/>
            <display value="homozygous"/>
          </coding>
        </valueCodeableConcept>
      </component>
      <component>
        <code>
          <coding>
            <system value="http://loinc.org"/>
            <code value="69547-8"/>
            <display value="Genomic Ref allele"/>
          </coding>
        </code>
        <valueString value="G"/>
      </component>
      <component>
        <code>
          <coding>
            <system value="http://loinc.org"/>
            <code value="69551-0"/>
            <display value="Genomic Alt allele"/>
          </coding>
        </code>
        <valueString value="A"/>
      </component>
      <component>
        <code>
          <coding>
            <system value="http://loinc.org"/>
            <code value="tbd-coordinate system"/>
            <display value="Genomic coordinate system"/>
          </coding>
        </code>
        <valueCodeableConcept>
          <coding>
            <system value="http://hl7.org/fhir/uv/genomics-reporting/CodeSystem/genetic-coordinate-system"/>
            <code value="1"/>
          </coding>
        </valueCodeableConcept>
      </component>
      <component>
        <code>
          <coding>
            <system value="http://loinc.org"/>
            <code value="81254-5"/>
            <display value="Genomic Allele start-end"/>
          </coding>
        </code>
        <valueRange>
          <low>
            <value value="18148513"/>
          </low>
        </valueRange>
      </component>
    </Observation>
  </contained>
  <contained>
    <Observation>
      <id value="dv-5c7f78cb7169c"/>
      <meta>
        <profile value="http://hl7.org/fhir/uv/genomics-reporting/StructureDefinition/obs-described-variant"/>
      </meta>
      <status value="final"/>
      <category>
        <coding>
          <system value="http://terminology.hl7.org/CodeSystem/observation-category"/>
          <code value="laboratory"/>
        </coding>
      </category>
      <code>
        <coding>
          <system value="http://loinc.org"/>
          <code value="TBD-Described"/>
          <display value="Genetic variant assessment"/>
        </coding>
      </code>
      <subject>
        <reference value="Patient/HG03239"/>
      </subject>
      <issued value="2019-03-06T07:37:47+00:00"/>
      <valueCodeableConcept>
        <coding>
          <system value="http://loinc.org"/>
          <code value="LA9633-4"/>
          <display value="Present"/>
        </coding>
      </valueCodeableConcept>
      <component>
        <code>
          <coding>
            <system value="http://loinc.org"/>
            <code value="62374-4"/>
            <display value="Human reference sequence assembly version"/>
          </coding>
        </code>
        <valueCodeableConcept>
          <coding>
            <system value="http://loinc.org"/>
            <code value="LA14029-5"/>
            <display value="GRCh37"/>
          </coding>
        </valueCodeableConcept>
      </component>
      <component>
        <code>
          <coding>
            <system value="http://loinc.org"/>
            <code value="48013-7"/>
            <display value="Genomic reference sequence ID"/>
          </coding>
        </code>
        <valueCodeableConcept>
          <coding>
            <system value="http://www.ncbi.nlm.nih.gov/nuccore"/>
            <code value="NC_000006.11"/>
          </coding>
        </valueCodeableConcept>
      </component>
      <component>
        <code>
          <coding>
            <system value="http://loinc.org"/>
            <code value="53034-5"/>
            <display value="Allelic state"/>
          </coding>
        </code>
        <valueCodeableConcept>
          <coding>
            <system value="http://loinc.org"/>
            <code value="LA6706-1"/>
            <display value="heterozygous"/>
          </coding>
        </valueCodeableConcept>
      </component>
      <component>
        <code>
          <coding>
            <system value="http://loinc.org"/>
            <code value="69547-8"/>
            <display value="Genomic Ref allele"/>
          </coding>
        </code>
        <valueString value="C"/>
      </component>
      <component>
        <code>
          <coding>
            <system value="http://loinc.org"/>
            <code value="69551-0"/>
            <display value="Genomic Alt allele"/>
          </coding>
        </code>
        <valueString value="T"/>
      </component>
      <component>
        <code>
          <coding>
            <system value="http://loinc.org"/>
            <code value="tbd-coordinate system"/>
            <display value="Genomic coordinate system"/>
          </coding>
        </code>
        <valueCodeableConcept>
          <coding>
            <system value="http://hl7.org/fhir/uv/genomics-reporting/CodeSystem/genetic-coordinate-system"/>
            <code value="1"/>
          </coding>
        </valueCodeableConcept>
      </component>
      <component>
        <code>
          <coding>
            <system value="http://loinc.org"/>
            <code value="81254-5"/>
            <display value="Genomic Allele start-end"/>
          </coding>
        </code>
        <valueRange>
          <low>
            <value value="18149526"/>
          </low>
        </valueRange>
      </component>
    </Observation>
  </contained>
  <contained>
    <Observation>
      <id value="dv-5c7f78cb71762"/>
      <meta>
        <profile value="http://hl7.org/fhir/uv/genomics-reporting/StructureDefinition/obs-described-variant"/>
      </meta>
      <status value="final"/>
      <category>
        <coding>
          <system value="http://terminology.hl7.org/CodeSystem/observation-category"/>
          <code value="laboratory"/>
        </coding>
      </category>
      <code>
        <coding>
          <system value="http://loinc.org"/>
          <code value="TBD-Described"/>
          <display value="Genetic variant assessment"/>
        </coding>
      </code>
      <subject>
        <reference value="Patient/HG03239"/>
      </subject>
      <issued value="2019-03-06T07:37:47+00:00"/>
      <valueCodeableConcept>
        <coding>
          <system value="http://loinc.org"/>
          <code value="LA9633-4"/>
          <display value="Present"/>
        </coding>
      </valueCodeableConcept>
      <component>
        <code>
          <coding>
            <system value="http://loinc.org"/>
            <code value="62374-4"/>
            <display value="Human reference sequence assembly version"/>
          </coding>
        </code>
        <valueCodeableConcept>
          <coding>
            <system value="http://loinc.org"/>
            <code value="LA14029-5"/>
            <display value="GRCh37"/>
          </coding>
        </valueCodeableConcept>
      </component>
      <component>
        <code>
          <coding>
            <system value="http://loinc.org"/>
            <code value="48013-7"/>
            <display value="Genomic reference sequence ID"/>
          </coding>
        </code>
        <valueCodeableConcept>
          <coding>
            <system value="http://www.ncbi.nlm.nih.gov/nuccore"/>
            <code value="NC_000006.11"/>
          </coding>
        </valueCodeableConcept>
      </component>
      <component>
        <code>
          <coding>
            <system value="http://loinc.org"/>
            <code value="53034-5"/>
            <display value="Allelic state"/>
          </coding>
        </code>
        <valueCodeableConcept>
          <coding>
            <system value="http://loinc.org"/>
            <code value="LA6706-1"/>
            <display value="heterozygous"/>
          </coding>
        </valueCodeableConcept>
      </component>
      <component>
        <code>
          <coding>
            <system value="http://loinc.org"/>
            <code value="69547-8"/>
            <display value="Genomic Ref allele"/>
          </coding>
        </code>
        <valueString value="C"/>
      </component>
      <component>
        <code>
          <coding>
            <system value="http://loinc.org"/>
            <code value="69551-0"/>
            <display value="Genomic Alt allele"/>
          </coding>
        </code>
        <valueString value="G"/>
      </component>
      <component>
        <code>
          <coding>
            <system value="http://loinc.org"/>
            <code value="tbd-coordinate system"/>
            <display value="Genomic coordinate system"/>
          </coding>
        </code>
        <valueCodeableConcept>
          <coding>
            <system value="http://hl7.org/fhir/uv/genomics-reporting/CodeSystem/genetic-coordinate-system"/>
            <code value="1"/>
          </coding>
        </valueCodeableConcept>
      </component>
      <component>
        <code>
          <coding>
            <system value="http://loinc.org"/>
            <code value="81254-5"/>
            <display value="Genomic Allele start-end"/>
          </coding>
        </code>
        <valueRange>
          <low>
            <value value="18150514"/>
          </low>
        </valueRange>
      </component>
    </Observation>
  </contained>
  <contained>
    <Observation>
      <id value="dv-5c7f78cb71826"/>
      <meta>
        <profile value="http://hl7.org/fhir/uv/genomics-reporting/StructureDefinition/obs-described-variant"/>
      </meta>
      <status value="final"/>
      <category>
        <coding>
          <system value="http://terminology.hl7.org/CodeSystem/observation-category"/>
          <code value="laboratory"/>
        </coding>
      </category>
      <code>
        <coding>
          <system value="http://loinc.org"/>
          <code value="TBD-Described"/>
          <display value="Genetic variant assessment"/>
        </coding>
      </code>
      <subject>
        <reference value="Patient/HG03239"/>
      </subject>
      <issued value="2019-03-06T07:37:47+00:00"/>
      <valueCodeableConcept>
        <coding>
          <system value="http://loinc.org"/>
          <code value="LA9633-4"/>
          <display value="Present"/>
        </coding>
      </valueCodeableConcept>
      <component>
        <code>
          <coding>
            <system value="http://loinc.org"/>
            <code value="62374-4"/>
            <display value="Human reference sequence assembly version"/>
          </coding>
        </code>
        <valueCodeableConcept>
          <coding>
            <system value="http://loinc.org"/>
            <code value="LA14029-5"/>
            <display value="GRCh37"/>
          </coding>
        </valueCodeableConcept>
      </component>
      <component>
        <code>
          <coding>
            <system value="http://loinc.org"/>
            <code value="48013-7"/>
            <display value="Genomic reference sequence ID"/>
          </coding>
        </code>
        <valueCodeableConcept>
          <coding>
            <system value="http://www.ncbi.nlm.nih.gov/nuccore"/>
            <code value="NC_000006.11"/>
          </coding>
        </valueCodeableConcept>
      </component>
      <component>
        <code>
          <coding>
            <system value="http://loinc.org"/>
            <code value="53034-5"/>
            <display value="Allelic state"/>
          </coding>
        </code>
        <valueCodeableConcept>
          <coding>
            <system value="http://loinc.org"/>
            <code value="LA6706-1"/>
            <display value="heterozygous"/>
          </coding>
        </valueCodeableConcept>
      </component>
      <component>
        <code>
          <coding>
            <system value="http://loinc.org"/>
            <code value="69547-8"/>
            <display value="Genomic Ref allele"/>
          </coding>
        </code>
        <valueString value="G"/>
      </component>
      <component>
        <code>
          <coding>
            <system value="http://loinc.org"/>
            <code value="69551-0"/>
            <display value="Genomic Alt allele"/>
          </coding>
        </code>
        <valueString value="A"/>
      </component>
      <component>
        <code>
          <coding>
            <system value="http://loinc.org"/>
            <code value="tbd-coordinate system"/>
            <display value="Genomic coordinate system"/>
          </coding>
        </code>
        <valueCodeableConcept>
          <coding>
            <system value="http://hl7.org/fhir/uv/genomics-reporting/CodeSystem/genetic-coordinate-system"/>
            <code value="1"/>
          </coding>
        </valueCodeableConcept>
      </component>
      <component>
        <code>
          <coding>
            <system value="http://loinc.org"/>
            <code value="81254-5"/>
            <display value="Genomic Allele start-end"/>
          </coding>
        </code>
        <valueRange>
          <low>
            <value value="18152421"/>
          </low>
        </valueRange>
      </component>
    </Observation>
  </contained>
  <contained>
    <Observation>
      <id value="dv-5c7f78cb718eb"/>
      <meta>
        <profile value="http://hl7.org/fhir/uv/genomics-reporting/StructureDefinition/obs-described-variant"/>
      </meta>
      <status value="final"/>
      <category>
        <coding>
          <system value="http://terminology.hl7.org/CodeSystem/observation-category"/>
          <code value="laboratory"/>
        </coding>
      </category>
      <code>
        <coding>
          <system value="http://loinc.org"/>
          <code value="TBD-Described"/>
          <display value="Genetic variant assessment"/>
        </coding>
      </code>
      <subject>
        <reference value="Patient/HG03239"/>
      </subject>
      <issued value="2019-03-06T07:37:47+00:00"/>
      <valueCodeableConcept>
        <coding>
          <system value="http://loinc.org"/>
          <code value="LA9633-4"/>
          <display value="Present"/>
        </coding>
      </valueCodeableConcept>
      <component>
        <code>
          <coding>
            <system value="http://loinc.org"/>
            <code value="62374-4"/>
            <display value="Human reference sequence assembly version"/>
          </coding>
        </code>
        <valueCodeableConcept>
          <coding>
            <system value="http://loinc.org"/>
            <code value="LA14029-5"/>
            <display value="GRCh37"/>
          </coding>
        </valueCodeableConcept>
      </component>
      <component>
        <code>
          <coding>
            <system value="http://loinc.org"/>
            <code value="48013-7"/>
            <display value="Genomic reference sequence ID"/>
          </coding>
        </code>
        <valueCodeableConcept>
          <coding>
            <system value="http://www.ncbi.nlm.nih.gov/nuccore"/>
            <code value="NC_000006.11"/>
          </coding>
        </valueCodeableConcept>
      </component>
      <component>
        <code>
          <coding>
            <system value="http://loinc.org"/>
            <code value="53034-5"/>
            <display value="Allelic state"/>
          </coding>
        </code>
        <valueCodeableConcept>
          <coding>
            <system value="http://loinc.org"/>
            <code value="LA6705-3"/>
            <display value="homozygous"/>
          </coding>
        </valueCodeableConcept>
      </component>
      <component>
        <code>
          <coding>
            <system value="http://loinc.org"/>
            <code value="69547-8"/>
            <display value="Genomic Ref allele"/>
          </coding>
        </code>
        <valueString value="A"/>
      </component>
      <component>
        <code>
          <coding>
            <system value="http://loinc.org"/>
            <code value="69551-0"/>
            <display value="Genomic Alt allele"/>
          </coding>
        </code>
        <valueString value="G"/>
      </component>
      <component>
        <code>
          <coding>
            <system value="http://loinc.org"/>
            <code value="tbd-coordinate system"/>
            <display value="Genomic coordinate system"/>
          </coding>
        </code>
        <valueCodeableConcept>
          <coding>
            <system value="http://hl7.org/fhir/uv/genomics-reporting/CodeSystem/genetic-coordinate-system"/>
            <code value="1"/>
          </coding>
        </valueCodeableConcept>
      </component>
      <component>
        <code>
          <coding>
            <system value="http://loinc.org"/>
            <code value="81254-5"/>
            <display value="Genomic Allele start-end"/>
          </coding>
        </code>
        <valueRange>
          <low>
            <value value="18153029"/>
          </low>
        </valueRange>
      </component>
    </Observation>
  </contained>
  <contained>
    <Observation>
      <id value="dv-5c7f78cb719b0"/>
      <meta>
        <profile value="http://hl7.org/fhir/uv/genomics-reporting/StructureDefinition/obs-described-variant"/>
      </meta>
      <status value="final"/>
      <category>
        <coding>
          <system value="http://terminology.hl7.org/CodeSystem/observation-category"/>
          <code value="laboratory"/>
        </coding>
      </category>
      <code>
        <coding>
          <system value="http://loinc.org"/>
          <code value="TBD-Described"/>
          <display value="Genetic variant assessment"/>
        </coding>
      </code>
      <subject>
        <reference value="Patient/HG03239"/>
      </subject>
      <issued value="2019-03-06T07:37:47+00:00"/>
      <valueCodeableConcept>
        <coding>
          <system value="http://loinc.org"/>
          <code value="LA9633-4"/>
          <display value="Present"/>
        </coding>
      </valueCodeableConcept>
      <component>
        <code>
          <coding>
            <system value="http://loinc.org"/>
            <code value="62374-4"/>
            <display value="Human reference sequence assembly version"/>
          </coding>
        </code>
        <valueCodeableConcept>
          <coding>
            <system value="http://loinc.org"/>
            <code value="LA14029-5"/>
            <display value="GRCh37"/>
          </coding>
        </valueCodeableConcept>
      </component>
      <component>
        <code>
          <coding>
            <system value="http://loinc.org"/>
            <code value="48013-7"/>
            <display value="Genomic reference sequence ID"/>
          </coding>
        </code>
        <valueCodeableConcept>
          <coding>
            <system value="http://www.ncbi.nlm.nih.gov/nuccore"/>
            <code value="NC_000006.11"/>
          </coding>
        </valueCodeableConcept>
      </component>
      <component>
        <code>
          <coding>
            <system value="http://loinc.org"/>
            <code value="53034-5"/>
            <display value="Allelic state"/>
          </coding>
        </code>
        <valueCodeableConcept>
          <coding>
            <system value="http://loinc.org"/>
            <code value="LA6706-1"/>
            <display value="heterozygous"/>
          </coding>
        </valueCodeableConcept>
      </component>
      <component>
        <code>
          <coding>
            <system value="http://loinc.org"/>
            <code value="69547-8"/>
            <display value="Genomic Ref allele"/>
          </coding>
        </code>
        <valueString value="T"/>
      </component>
      <component>
        <code>
          <coding>
            <system value="http://loinc.org"/>
            <code value="69551-0"/>
            <display value="Genomic Alt allele"/>
          </coding>
        </code>
        <valueString value="A"/>
      </component>
      <component>
        <code>
          <coding>
            <system value="http://loinc.org"/>
            <code value="tbd-coordinate system"/>
            <display value="Genomic coordinate system"/>
          </coding>
        </code>
        <valueCodeableConcept>
          <coding>
            <system value="http://hl7.org/fhir/uv/genomics-reporting/CodeSystem/genetic-coordinate-system"/>
            <code value="1"/>
          </coding>
        </valueCodeableConcept>
      </component>
      <component>
        <code>
          <coding>
            <system value="http://loinc.org"/>
            <code value="81254-5"/>
            <display value="Genomic Allele start-end"/>
          </coding>
        </code>
        <valueRange>
          <low>
            <value value="18153330"/>
          </low>
        </valueRange>
      </component>
    </Observation>
  </contained>
  <contained>
    <Observation>
      <id value="dv-5c7f78cb71a74"/>
      <meta>
        <profile value="http://hl7.org/fhir/uv/genomics-reporting/StructureDefinition/obs-described-variant"/>
      </meta>
      <status value="final"/>
      <category>
        <coding>
          <system value="http://terminology.hl7.org/CodeSystem/observation-category"/>
          <code value="laboratory"/>
        </coding>
      </category>
      <code>
        <coding>
          <system value="http://loinc.org"/>
          <code value="TBD-Described"/>
          <display value="Genetic variant assessment"/>
        </coding>
      </code>
      <subject>
        <reference value="Patient/HG03239"/>
      </subject>
      <issued value="2019-03-06T07:37:47+00:00"/>
      <valueCodeableConcept>
        <coding>
          <system value="http://loinc.org"/>
          <code value="LA9633-4"/>
          <display value="Present"/>
        </coding>
      </valueCodeableConcept>
      <component>
        <code>
          <coding>
            <system value="http://loinc.org"/>
            <code value="62374-4"/>
            <display value="Human reference sequence assembly version"/>
          </coding>
        </code>
        <valueCodeableConcept>
          <coding>
            <system value="http://loinc.org"/>
            <code value="LA14029-5"/>
            <display value="GRCh37"/>
          </coding>
        </valueCodeableConcept>
      </component>
      <component>
        <code>
          <coding>
            <system value="http://loinc.org"/>
            <code value="48013-7"/>
            <display value="Genomic reference sequence ID"/>
          </coding>
        </code>
        <valueCodeableConcept>
          <coding>
            <system value="http://www.ncbi.nlm.nih.gov/nuccore"/>
            <code value="NC_000006.11"/>
          </coding>
        </valueCodeableConcept>
      </component>
      <component>
        <code>
          <coding>
            <system value="http://loinc.org"/>
            <code value="53034-5"/>
            <display value="Allelic state"/>
          </coding>
        </code>
        <valueCodeableConcept>
          <coding>
            <system value="http://loinc.org"/>
            <code value="LA6706-1"/>
            <display value="heterozygous"/>
          </coding>
        </valueCodeableConcept>
      </component>
      <component>
        <code>
          <coding>
            <system value="http://loinc.org"/>
            <code value="69547-8"/>
            <display value="Genomic Ref allele"/>
          </coding>
        </code>
        <valueString value="A"/>
      </component>
      <component>
        <code>
          <coding>
            <system value="http://loinc.org"/>
            <code value="69551-0"/>
            <display value="Genomic Alt allele"/>
          </coding>
        </code>
        <valueString value="T"/>
      </component>
      <component>
        <code>
          <coding>
            <system value="http://loinc.org"/>
            <code value="tbd-coordinate system"/>
            <display value="Genomic coordinate system"/>
          </coding>
        </code>
        <valueCodeableConcept>
          <coding>
            <system value="http://hl7.org/fhir/uv/genomics-reporting/CodeSystem/genetic-coordinate-system"/>
            <code value="1"/>
          </coding>
        </valueCodeableConcept>
      </component>
      <component>
        <code>
          <coding>
            <system value="http://loinc.org"/>
            <code value="81254-5"/>
            <display value="Genomic Allele start-end"/>
          </coding>
        </code>
        <valueRange>
          <low>
            <value value="18154515"/>
          </low>
        </valueRange>
      </component>
    </Observation>
  </contained>
  <contained>
    <Observation>
      <id value="dv-5c7f78cb71b3a"/>
      <meta>
        <profile value="http://hl7.org/fhir/uv/genomics-reporting/StructureDefinition/obs-described-variant"/>
      </meta>
      <status value="final"/>
      <category>
        <coding>
          <system value="http://terminology.hl7.org/CodeSystem/observation-category"/>
          <code value="laboratory"/>
        </coding>
      </category>
      <code>
        <coding>
          <system value="http://loinc.org"/>
          <code value="TBD-Described"/>
          <display value="Genetic variant assessment"/>
        </coding>
      </code>
      <subject>
        <reference value="Patient/HG03239"/>
      </subject>
      <issued value="2019-03-06T07:37:47+00:00"/>
      <valueCodeableConcept>
        <coding>
          <system value="http://loinc.org"/>
          <code value="LA9633-4"/>
          <display value="Present"/>
        </coding>
      </valueCodeableConcept>
      <component>
        <code>
          <coding>
            <system value="http://loinc.org"/>
            <code value="62374-4"/>
            <display value="Human reference sequence assembly version"/>
          </coding>
        </code>
        <valueCodeableConcept>
          <coding>
            <system value="http://loinc.org"/>
            <code value="LA14029-5"/>
            <display value="GRCh37"/>
          </coding>
        </valueCodeableConcept>
      </component>
      <component>
        <code>
          <coding>
            <system value="http://loinc.org"/>
            <code value="48013-7"/>
            <display value="Genomic reference sequence ID"/>
          </coding>
        </code>
        <valueCodeableConcept>
          <coding>
            <system value="http://www.ncbi.nlm.nih.gov/nuccore"/>
            <code value="NC_000006.11"/>
          </coding>
        </valueCodeableConcept>
      </component>
      <component>
        <code>
          <coding>
            <system value="http://loinc.org"/>
            <code value="53034-5"/>
            <display value="Allelic state"/>
          </coding>
        </code>
        <valueCodeableConcept>
          <coding>
            <system value="http://loinc.org"/>
            <code value="LA6706-1"/>
            <display value="heterozygous"/>
          </coding>
        </valueCodeableConcept>
      </component>
      <component>
        <code>
          <coding>
            <system value="http://loinc.org"/>
            <code value="69547-8"/>
            <display value="Genomic Ref allele"/>
          </coding>
        </code>
        <valueString value="C"/>
      </component>
      <component>
        <code>
          <coding>
            <system value="http://loinc.org"/>
            <code value="69551-0"/>
            <display value="Genomic Alt allele"/>
          </coding>
        </code>
        <valueString value="T"/>
      </component>
      <component>
        <code>
          <coding>
            <system value="http://loinc.org"/>
            <code value="tbd-coordinate system"/>
            <display value="Genomic coordinate system"/>
          </coding>
        </code>
        <valueCodeableConcept>
          <coding>
            <system value="http://hl7.org/fhir/uv/genomics-reporting/CodeSystem/genetic-coordinate-system"/>
            <code value="1"/>
          </coding>
        </valueCodeableConcept>
      </component>
      <component>
        <code>
          <coding>
            <system value="http://loinc.org"/>
            <code value="81254-5"/>
            <display value="Genomic Allele start-end"/>
          </coding>
        </code>
        <valueRange>
          <low>
            <value value="18154895"/>
          </low>
        </valueRange>
      </component>
    </Observation>
  </contained>
  <contained>
    <Observation>
      <id value="sid-5c7f78cb71bff"/>
      <meta>
        <profile value="http://hl7.org/fhir/uv/genomics-reporting/StructureDefinition/obs-sequence-phase-reltn"/>
      </meta>
      <extension url="http://hl7.org/fhir/uv/genomics-reporting/StructureDefinition/obs-focus">
        <valueReference>
          <reference value="#dv-5c7f78cb6fc77"/>
        </valueReference>
      </extension>
      <extension url="http://hl7.org/fhir/uv/genomics-reporting/StructureDefinition/obs-focus">
        <valueReference>
          <reference value="#dv-5c7f78cb6fd6e"/>
        </valueReference>
      </extension>
      <status value="final"/>
      <category>
        <coding>
          <system value="http://terminology.hl7.org/CodeSystem/observation-category"/>
          <code value="laboratory"/>
        </coding>
      </category>
      <code>
        <coding>
          <system value="http://loinc.org"/>
          <code value="TBD-sequence-phase-relation"/>
          <display value="Sequence phase relationship"/>
        </coding>
      </code>
      <subject>
        <reference value="Patient/HG03239"/>
      </subject>
      <issued value="2019-03-06T07:37:47+00:00"/>
      <valueCodeableConcept>
        <coding>
          <system value="http://loinc.org"/>
          <code value="TBD-cisTrans"/>
          <display value="Cis"/>
        </coding>
      </valueCodeableConcept>
    </Observation>
  </contained>
  <contained>
    <Observation>
      <id value="sid-5c7f78cb71c38"/>
      <meta>
        <profile value="http://hl7.org/fhir/uv/genomics-reporting/StructureDefinition/obs-sequence-phase-reltn"/>
      </meta>
      <extension url="http://hl7.org/fhir/uv/genomics-reporting/StructureDefinition/obs-focus">
        <valueReference>
          <reference value="#dv-5c7f78cb70219"/>
        </valueReference>
      </extension>
      <extension url="http://hl7.org/fhir/uv/genomics-reporting/StructureDefinition/obs-focus">
        <valueReference>
          <reference value="#dv-5c7f78cb70305"/>
        </valueReference>
      </extension>
      <status value="final"/>
      <category>
        <coding>
          <system value="http://terminology.hl7.org/CodeSystem/observation-category"/>
          <code value="laboratory"/>
        </coding>
      </category>
      <code>
        <coding>
          <system value="http://loinc.org"/>
          <code value="TBD-sequence-phase-relation"/>
          <display value="Sequence phase relationship"/>
        </coding>
      </code>
      <subject>
        <reference value="Patient/HG03239"/>
      </subject>
      <issued value="2019-03-06T07:37:47+00:00"/>
      <valueCodeableConcept>
        <coding>
          <system value="http://loinc.org"/>
          <code value="TBD-cisTrans"/>
          <display value="Cis"/>
        </coding>
      </valueCodeableConcept>
    </Observation>
  </contained>
  <contained>
    <Observation>
      <id value="sid-5c7f78cb71c70"/>
      <meta>
        <profile value="http://hl7.org/fhir/uv/genomics-reporting/StructureDefinition/obs-sequence-phase-reltn"/>
      </meta>
      <extension url="http://hl7.org/fhir/uv/genomics-reporting/StructureDefinition/obs-focus">
        <valueReference>
          <reference value="#dv-5c7f78cb70403"/>
        </valueReference>
      </extension>
      <extension url="http://hl7.org/fhir/uv/genomics-reporting/StructureDefinition/obs-focus">
        <valueReference>
          <reference value="#dv-5c7f78cb70500"/>
        </valueReference>
      </extension>
      <status value="final"/>
      <category>
        <coding>
          <system value="http://terminology.hl7.org/CodeSystem/observation-category"/>
          <code value="laboratory"/>
        </coding>
      </category>
      <code>
        <coding>
          <system value="http://loinc.org"/>
          <code value="TBD-sequence-phase-relation"/>
          <display value="Sequence phase relationship"/>
        </coding>
      </code>
      <subject>
        <reference value="Patient/HG03239"/>
      </subject>
      <issued value="2019-03-06T07:37:47+00:00"/>
      <valueCodeableConcept>
        <coding>
          <system value="http://loinc.org"/>
          <code value="TBD-cisTrans"/>
          <display value="Cis"/>
        </coding>
      </valueCodeableConcept>
    </Observation>
  </contained>
  <contained>
    <Observation>
      <id value="sid-5c7f78cb71ca8"/>
      <meta>
        <profile value="http://hl7.org/fhir/uv/genomics-reporting/StructureDefinition/obs-sequence-phase-reltn"/>
      </meta>
      <extension url="http://hl7.org/fhir/uv/genomics-reporting/StructureDefinition/obs-focus">
        <valueReference>
          <reference value="#dv-5c7f78cb70500"/>
        </valueReference>
      </extension>
      <extension url="http://hl7.org/fhir/uv/genomics-reporting/StructureDefinition/obs-focus">
        <valueReference>
          <reference value="#dv-5c7f78cb70621"/>
        </valueReference>
      </extension>
      <status value="final"/>
      <category>
        <coding>
          <system value="http://terminology.hl7.org/CodeSystem/observation-category"/>
          <code value="laboratory"/>
        </coding>
      </category>
      <code>
        <coding>
          <system value="http://loinc.org"/>
          <code value="TBD-sequence-phase-relation"/>
          <display value="Sequence phase relationship"/>
        </coding>
      </code>
      <subject>
        <reference value="Patient/HG03239"/>
      </subject>
      <issued value="2019-03-06T07:37:47+00:00"/>
      <valueCodeableConcept>
        <coding>
          <system value="http://loinc.org"/>
          <code value="TBD-cisTrans"/>
          <display value="Cis"/>
        </coding>
      </valueCodeableConcept>
    </Observation>
  </contained>
  <status value="final"/>
  <code>
    <coding>
      <system value="http://loinc.org"/>
      <code value="51969-4"/>
    </coding>
    <text value="Genetic analysis report"/>
  </code>
  <subject>
    <reference value="Patient/HG03239"/>
  </subject>
  <result>
    <reference value="#rs-5c7f78cb6ed9c"/>
  </result>
  <result>
    <reference value="#dv-5c7f78cb6ee6e"/>
  </result>
  <result>
    <reference value="#dv-5c7f78cb6efff"/>
  </result>
  <result>
    <reference value="#dv-5c7f78cb6f148"/>
  </result>
  <result>
    <reference value="#dv-5c7f78cb6f234"/>
  </result>
  <result>
    <reference value="#dv-5c7f78cb6f331"/>
  </result>
  <result>
    <reference value="#dv-5c7f78cb6f423"/>
  </result>
  <result>
    <reference value="#dv-5c7f78cb6f537"/>
  </result>
  <result>
    <reference value="#dv-5c7f78cb6f65b"/>
  </result>
  <result>
    <reference value="#dv-5c7f78cb6f783"/>
  </result>
  <result>
    <reference value="#dv-5c7f78cb6f8fc"/>
  </result>
  <result>
    <reference value="#dv-5c7f78cb6fa7b"/>
  </result>
  <result>
    <reference value="#dv-5c7f78cb6fb81"/>
  </result>
  <result>
    <reference value="#dv-5c7f78cb6fc77"/>
  </result>
  <result>
    <reference value="#dv-5c7f78cb6fd6e"/>
  </result>
  <result>
    <reference value="#dv-5c7f78cb6fe4a"/>
  </result>
  <result>
    <reference value="#dv-5c7f78cb6ff3d"/>
  </result>
  <result>
    <reference value="#dv-5c7f78cb7003d"/>
  </result>
  <result>
    <reference value="#dv-5c7f78cb7012a"/>
  </result>
  <result>
    <reference value="#dv-5c7f78cb70219"/>
  </result>
  <result>
    <reference value="#dv-5c7f78cb70305"/>
  </result>
  <result>
    <reference value="#dv-5c7f78cb70403"/>
  </result>
  <result>
    <reference value="#dv-5c7f78cb70500"/>
  </result>
  <result>
    <reference value="#dv-5c7f78cb70621"/>
  </result>
  <result>
    <reference value="#dv-5c7f78cb706ea"/>
  </result>
  <result>
    <reference value="#dv-5c7f78cb707b2"/>
  </result>
  <result>
    <reference value="#dv-5c7f78cb7087c"/>
  </result>
  <result>
    <reference value="#dv-5c7f78cb70943"/>
  </result>
  <result>
    <reference value="#dv-5c7f78cb70a0c"/>
  </result>
  <result>
    <reference value="#dv-5c7f78cb70ad6"/>
  </result>
  <result>
    <reference value="#dv-5c7f78cb70b9e"/>
  </result>
  <result>
    <reference value="#dv-5c7f78cb70c68"/>
  </result>
  <result>
    <reference value="#dv-5c7f78cb70d30"/>
  </result>
  <result>
    <reference value="#dv-5c7f78cb70df8"/>
  </result>
  <result>
    <reference value="#dv-5c7f78cb70ec1"/>
  </result>
  <result>
    <reference value="#dv-5c7f78cb70f89"/>
  </result>
  <result>
    <reference value="#dv-5c7f78cb71051"/>
  </result>
  <result>
    <reference value="#dv-5c7f78cb7111a"/>
  </result>
  <result>
    <reference value="#dv-5c7f78cb711e4"/>
  </result>
  <result>
    <reference value="#dv-5c7f78cb712ac"/>
  </result>
  <result>
    <reference value="#dv-5c7f78cb71377"/>
  </result>
  <result>
    <reference value="#dv-5c7f78cb7143f"/>
  </result>
  <result>
    <reference value="#dv-5c7f78cb71512"/>
  </result>
  <result>
    <reference value="#dv-5c7f78cb715d7"/>
  </result>
  <result>
    <reference value="#dv-5c7f78cb7169c"/>
  </result>
  <result>
    <reference value="#dv-5c7f78cb71762"/>
  </result>
  <result>
    <reference value="#dv-5c7f78cb71826"/>
  </result>
  <result>
    <reference value="#dv-5c7f78cb718eb"/>
  </result>
  <result>
    <reference value="#dv-5c7f78cb719b0"/>
  </result>
  <result>
    <reference value="#dv-5c7f78cb71a74"/>
  </result>
  <result>
    <reference value="#dv-5c7f78cb71b3a"/>
  </result>
  <result>
    <reference value="#sid-5c7f78cb71bff"/>
  </result>
  <result>
    <reference value="#sid-5c7f78cb71c38"/>
  </result>
  <result>
    <reference value="#sid-5c7f78cb71c70"/>
  </result>
  <result>
    <reference value="#sid-5c7f78cb71ca8"/>
  </result>
</DiagnosticReport>