<?xml version="1.0" encoding="utf-8"?>
<DiagnosticReport xmlns="http://hl7.org/fhir">
  <id value="dr-5c7f9b5bd085a"/>
  <meta>
    <profile value="http://hl7.org/fhir/uv/genomics-reporting/StructureDefinition/diagnosticreport"/>
  </meta>
  <contained>
    <Observation>
      <id value="rs-5c7f9b5bd07f0"/>
      <meta>
        <profile value="http://hl7.org/fhir/uv/genomics-reporting/StructureDefinition/obs-region-studied"/>
      </meta>
      <status value="final"/>
      <category>
        <coding>
          <system value="http://terminology.hl7.org/CodeSystem/observation-category"/>
          <code value="laboratory"/>
        </coding>
      </category>
      <code>
        <coding>
          <system value="http://loinc.org"/>
          <code value="TBD-RegionsStudied"/>
          <display value="Region studied"/>
        </coding>
      </code>
      <subject>
        <reference value="Patient/NA12046"/>
      </subject>
      <issued value="2019-03-06T10:05:15+00:00"/>
      <valueCodeableConcept>
        <coding>
          <system value="http://loinc.org"/>
          <code value="LA9633-4"/>
          <display value="Present"/>
        </coding>
      </valueCodeableConcept>
      <component>
        <code>
          <coding>
            <system value="http://loinc.org"/>
            <code value="48018-6"/>
            <display value="Gene studied ID"/>
          </coding>
        </code>
        <valueCodeableConcept>
          <coding>
            <system value="http://www.genenames.org"/>
            <code value="HGNC:12014"/>
            <display value="TPMT"/>
          </coding>
        </valueCodeableConcept>
      </component>
    </Observation>
  </contained>
  <contained>
    <Observation>
      <id value="dv-5c7f9b5bd0895"/>
      <meta>
        <profile value="http://hl7.org/fhir/uv/genomics-reporting/StructureDefinition/obs-described-variant"/>
      </meta>
      <status value="final"/>
      <category>
        <coding>
          <system value="http://terminology.hl7.org/CodeSystem/observation-category"/>
          <code value="laboratory"/>
        </coding>
      </category>
      <code>
        <coding>
          <system value="http://loinc.org"/>
          <code value="TBD-Described"/>
          <display value="Genetic variant assessment"/>
        </coding>
      </code>
      <subject>
        <reference value="Patient/NA12046"/>
      </subject>
      <issued value="2019-03-06T10:05:15+00:00"/>
      <valueCodeableConcept>
        <coding>
          <system value="http://loinc.org"/>
          <code value="LA9633-4"/>
          <display value="Present"/>
        </coding>
      </valueCodeableConcept>
      <component>
        <code>
          <coding>
            <system value="http://loinc.org"/>
            <code value="62374-4"/>
            <display value="Human reference sequence assembly version"/>
          </coding>
        </code>
        <valueCodeableConcept>
          <coding>
            <system value="http://loinc.org"/>
            <code value="LA14029-5"/>
            <display value="GRCh37"/>
          </coding>
        </valueCodeableConcept>
      </component>
      <component>
        <code>
          <coding>
            <system value="http://loinc.org"/>
            <code value="48013-7"/>
            <display value="Genomic reference sequence ID"/>
          </coding>
        </code>
        <valueCodeableConcept>
          <coding>
            <system value="http://www.ncbi.nlm.nih.gov/nuccore"/>
            <code value="NC_000006.11"/>
          </coding>
        </valueCodeableConcept>
      </component>
      <component>
        <code>
          <coding>
            <system value="http://loinc.org"/>
            <code value="53034-5"/>
            <display value="Allelic state"/>
          </coding>
        </code>
        <valueCodeableConcept>
          <coding>
            <system value="http://loinc.org"/>
            <code value="LA6706-1"/>
            <display value="heterozygous"/>
          </coding>
        </valueCodeableConcept>
      </component>
      <component>
        <code>
          <coding>
            <system value="http://loinc.org"/>
            <code value="69547-8"/>
            <display value="Genomic Ref allele"/>
          </coding>
        </code>
        <valueString value="T"/>
      </component>
      <component>
        <code>
          <coding>
            <system value="http://loinc.org"/>
            <code value="69551-0"/>
            <display value="Genomic Alt allele"/>
          </coding>
        </code>
        <valueString value="A"/>
      </component>
      <component>
        <code>
          <coding>
            <system value="http://loinc.org"/>
            <code value="tbd-coordinate system"/>
            <display value="Genomic coordinate system"/>
          </coding>
        </code>
        <valueCodeableConcept>
          <coding>
            <system value="http://hl7.org/fhir/uv/genomics-reporting/CodeSystem/genetic-coordinate-system"/>
            <code value="1"/>
          </coding>
        </valueCodeableConcept>
      </component>
      <component>
        <code>
          <coding>
            <system value="http://loinc.org"/>
            <code value="81254-5"/>
            <display value="Genomic Allele start-end"/>
          </coding>
        </code>
        <valueRange>
          <low>
            <value value="18128659"/>
          </low>
        </valueRange>
      </component>
    </Observation>
  </contained>
  <contained>
    <Observation>
      <id value="dv-5c7f9b5bd0927"/>
      <meta>
        <profile value="http://hl7.org/fhir/uv/genomics-reporting/StructureDefinition/obs-described-variant"/>
      </meta>
      <status value="final"/>
      <category>
        <coding>
          <system value="http://terminology.hl7.org/CodeSystem/observation-category"/>
          <code value="laboratory"/>
        </coding>
      </category>
      <code>
        <coding>
          <system value="http://loinc.org"/>
          <code value="TBD-Described"/>
          <display value="Genetic variant assessment"/>
        </coding>
      </code>
      <subject>
        <reference value="Patient/NA12046"/>
      </subject>
      <issued value="2019-03-06T10:05:15+00:00"/>
      <valueCodeableConcept>
        <coding>
          <system value="http://loinc.org"/>
          <code value="LA9633-4"/>
          <display value="Present"/>
        </coding>
      </valueCodeableConcept>
      <component>
        <code>
          <coding>
            <system value="http://loinc.org"/>
            <code value="62374-4"/>
            <display value="Human reference sequence assembly version"/>
          </coding>
        </code>
        <valueCodeableConcept>
          <coding>
            <system value="http://loinc.org"/>
            <code value="LA14029-5"/>
            <display value="GRCh37"/>
          </coding>
        </valueCodeableConcept>
      </component>
      <component>
        <code>
          <coding>
            <system value="http://loinc.org"/>
            <code value="48013-7"/>
            <display value="Genomic reference sequence ID"/>
          </coding>
        </code>
        <valueCodeableConcept>
          <coding>
            <system value="http://www.ncbi.nlm.nih.gov/nuccore"/>
            <code value="NC_000006.11"/>
          </coding>
        </valueCodeableConcept>
      </component>
      <component>
        <code>
          <coding>
            <system value="http://loinc.org"/>
            <code value="53034-5"/>
            <display value="Allelic state"/>
          </coding>
        </code>
        <valueCodeableConcept>
          <coding>
            <system value="http://loinc.org"/>
            <code value="LA6706-1"/>
            <display value="heterozygous"/>
          </coding>
        </valueCodeableConcept>
      </component>
      <component>
        <code>
          <coding>
            <system value="http://loinc.org"/>
            <code value="69547-8"/>
            <display value="Genomic Ref allele"/>
          </coding>
        </code>
        <valueString value="T"/>
      </component>
      <component>
        <code>
          <coding>
            <system value="http://loinc.org"/>
            <code value="69551-0"/>
            <display value="Genomic Alt allele"/>
          </coding>
        </code>
        <valueString value="G"/>
      </component>
      <component>
        <code>
          <coding>
            <system value="http://loinc.org"/>
            <code value="tbd-coordinate system"/>
            <display value="Genomic coordinate system"/>
          </coding>
        </code>
        <valueCodeableConcept>
          <coding>
            <system value="http://hl7.org/fhir/uv/genomics-reporting/CodeSystem/genetic-coordinate-system"/>
            <code value="1"/>
          </coding>
        </valueCodeableConcept>
      </component>
      <component>
        <code>
          <coding>
            <system value="http://loinc.org"/>
            <code value="81254-5"/>
            <display value="Genomic Allele start-end"/>
          </coding>
        </code>
        <valueRange>
          <low>
            <value value="18128999"/>
          </low>
        </valueRange>
      </component>
    </Observation>
  </contained>
  <contained>
    <Observation>
      <id value="dv-5c7f9b5bd09ab"/>
      <meta>
        <profile value="http://hl7.org/fhir/uv/genomics-reporting/StructureDefinition/obs-described-variant"/>
      </meta>
      <status value="final"/>
      <category>
        <coding>
          <system value="http://terminology.hl7.org/CodeSystem/observation-category"/>
          <code value="laboratory"/>
        </coding>
      </category>
      <code>
        <coding>
          <system value="http://loinc.org"/>
          <code value="TBD-Described"/>
          <display value="Genetic variant assessment"/>
        </coding>
      </code>
      <subject>
        <reference value="Patient/NA12046"/>
      </subject>
      <issued value="2019-03-06T10:05:15+00:00"/>
      <valueCodeableConcept>
        <coding>
          <system value="http://loinc.org"/>
          <code value="LA9633-4"/>
          <display value="Present"/>
        </coding>
      </valueCodeableConcept>
      <component>
        <code>
          <coding>
            <system value="http://loinc.org"/>
            <code value="62374-4"/>
            <display value="Human reference sequence assembly version"/>
          </coding>
        </code>
        <valueCodeableConcept>
          <coding>
            <system value="http://loinc.org"/>
            <code value="LA14029-5"/>
            <display value="GRCh37"/>
          </coding>
        </valueCodeableConcept>
      </component>
      <component>
        <code>
          <coding>
            <system value="http://loinc.org"/>
            <code value="48013-7"/>
            <display value="Genomic reference sequence ID"/>
          </coding>
        </code>
        <valueCodeableConcept>
          <coding>
            <system value="http://www.ncbi.nlm.nih.gov/nuccore"/>
            <code value="NC_000006.11"/>
          </coding>
        </valueCodeableConcept>
      </component>
      <component>
        <code>
          <coding>
            <system value="http://loinc.org"/>
            <code value="53034-5"/>
            <display value="Allelic state"/>
          </coding>
        </code>
        <valueCodeableConcept>
          <coding>
            <system value="http://loinc.org"/>
            <code value="LA6706-1"/>
            <display value="heterozygous"/>
          </coding>
        </valueCodeableConcept>
      </component>
      <component>
        <code>
          <coding>
            <system value="http://loinc.org"/>
            <code value="69547-8"/>
            <display value="Genomic Ref allele"/>
          </coding>
        </code>
        <valueString value="T"/>
      </component>
      <component>
        <code>
          <coding>
            <system value="http://loinc.org"/>
            <code value="69551-0"/>
            <display value="Genomic Alt allele"/>
          </coding>
        </code>
        <valueString value="C"/>
      </component>
      <component>
        <code>
          <coding>
            <system value="http://loinc.org"/>
            <code value="tbd-coordinate system"/>
            <display value="Genomic coordinate system"/>
          </coding>
        </code>
        <valueCodeableConcept>
          <coding>
            <system value="http://hl7.org/fhir/uv/genomics-reporting/CodeSystem/genetic-coordinate-system"/>
            <code value="1"/>
          </coding>
        </valueCodeableConcept>
      </component>
      <component>
        <code>
          <coding>
            <system value="http://loinc.org"/>
            <code value="81254-5"/>
            <display value="Genomic Allele start-end"/>
          </coding>
        </code>
        <valueRange>
          <low>
            <value value="18129079"/>
          </low>
        </valueRange>
      </component>
    </Observation>
  </contained>
  <contained>
    <Observation>
      <id value="dv-5c7f9b5bd0a68"/>
      <meta>
        <profile value="http://hl7.org/fhir/uv/genomics-reporting/StructureDefinition/obs-described-variant"/>
      </meta>
      <status value="final"/>
      <category>
        <coding>
          <system value="http://terminology.hl7.org/CodeSystem/observation-category"/>
          <code value="laboratory"/>
        </coding>
      </category>
      <code>
        <coding>
          <system value="http://loinc.org"/>
          <code value="TBD-Described"/>
          <display value="Genetic variant assessment"/>
        </coding>
      </code>
      <subject>
        <reference value="Patient/NA12046"/>
      </subject>
      <issued value="2019-03-06T10:05:15+00:00"/>
      <valueCodeableConcept>
        <coding>
          <system value="http://loinc.org"/>
          <code value="LA9633-4"/>
          <display value="Present"/>
        </coding>
      </valueCodeableConcept>
      <component>
        <code>
          <coding>
            <system value="http://loinc.org"/>
            <code value="62374-4"/>
            <display value="Human reference sequence assembly version"/>
          </coding>
        </code>
        <valueCodeableConcept>
          <coding>
            <system value="http://loinc.org"/>
            <code value="LA14029-5"/>
            <display value="GRCh37"/>
          </coding>
        </valueCodeableConcept>
      </component>
      <component>
        <code>
          <coding>
            <system value="http://loinc.org"/>
            <code value="48013-7"/>
            <display value="Genomic reference sequence ID"/>
          </coding>
        </code>
        <valueCodeableConcept>
          <coding>
            <system value="http://www.ncbi.nlm.nih.gov/nuccore"/>
            <code value="NC_000006.11"/>
          </coding>
        </valueCodeableConcept>
      </component>
      <component>
        <code>
          <coding>
            <system value="http://loinc.org"/>
            <code value="53034-5"/>
            <display value="Allelic state"/>
          </coding>
        </code>
        <valueCodeableConcept>
          <coding>
            <system value="http://loinc.org"/>
            <code value="LA6706-1"/>
            <display value="heterozygous"/>
          </coding>
        </valueCodeableConcept>
      </component>
      <component>
        <code>
          <coding>
            <system value="http://loinc.org"/>
            <code value="69547-8"/>
            <display value="Genomic Ref allele"/>
          </coding>
        </code>
        <valueString value="C"/>
      </component>
      <component>
        <code>
          <coding>
            <system value="http://loinc.org"/>
            <code value="69551-0"/>
            <display value="Genomic Alt allele"/>
          </coding>
        </code>
        <valueString value="T"/>
      </component>
      <component>
        <code>
          <coding>
            <system value="http://loinc.org"/>
            <code value="tbd-coordinate system"/>
            <display value="Genomic coordinate system"/>
          </coding>
        </code>
        <valueCodeableConcept>
          <coding>
            <system value="http://hl7.org/fhir/uv/genomics-reporting/CodeSystem/genetic-coordinate-system"/>
            <code value="1"/>
          </coding>
        </valueCodeableConcept>
      </component>
      <component>
        <code>
          <coding>
            <system value="http://loinc.org"/>
            <code value="81254-5"/>
            <display value="Genomic Allele start-end"/>
          </coding>
        </code>
        <valueRange>
          <low>
            <value value="18129295"/>
          </low>
        </valueRange>
      </component>
    </Observation>
  </contained>
  <contained>
    <Observation>
      <id value="dv-5c7f9b5bd0b25"/>
      <meta>
        <profile value="http://hl7.org/fhir/uv/genomics-reporting/StructureDefinition/obs-described-variant"/>
      </meta>
      <status value="final"/>
      <category>
        <coding>
          <system value="http://terminology.hl7.org/CodeSystem/observation-category"/>
          <code value="laboratory"/>
        </coding>
      </category>
      <code>
        <coding>
          <system value="http://loinc.org"/>
          <code value="TBD-Described"/>
          <display value="Genetic variant assessment"/>
        </coding>
      </code>
      <subject>
        <reference value="Patient/NA12046"/>
      </subject>
      <issued value="2019-03-06T10:05:15+00:00"/>
      <valueCodeableConcept>
        <coding>
          <system value="http://loinc.org"/>
          <code value="LA9633-4"/>
          <display value="Present"/>
        </coding>
      </valueCodeableConcept>
      <component>
        <code>
          <coding>
            <system value="http://loinc.org"/>
            <code value="62374-4"/>
            <display value="Human reference sequence assembly version"/>
          </coding>
        </code>
        <valueCodeableConcept>
          <coding>
            <system value="http://loinc.org"/>
            <code value="LA14029-5"/>
            <display value="GRCh37"/>
          </coding>
        </valueCodeableConcept>
      </component>
      <component>
        <code>
          <coding>
            <system value="http://loinc.org"/>
            <code value="48013-7"/>
            <display value="Genomic reference sequence ID"/>
          </coding>
        </code>
        <valueCodeableConcept>
          <coding>
            <system value="http://www.ncbi.nlm.nih.gov/nuccore"/>
            <code value="NC_000006.11"/>
          </coding>
        </valueCodeableConcept>
      </component>
      <component>
        <code>
          <coding>
            <system value="http://loinc.org"/>
            <code value="53034-5"/>
            <display value="Allelic state"/>
          </coding>
        </code>
        <valueCodeableConcept>
          <coding>
            <system value="http://loinc.org"/>
            <code value="LA6706-1"/>
            <display value="heterozygous"/>
          </coding>
        </valueCodeableConcept>
      </component>
      <component>
        <code>
          <coding>
            <system value="http://loinc.org"/>
            <code value="69547-8"/>
            <display value="Genomic Ref allele"/>
          </coding>
        </code>
        <valueString value="T"/>
      </component>
      <component>
        <code>
          <coding>
            <system value="http://loinc.org"/>
            <code value="69551-0"/>
            <display value="Genomic Alt allele"/>
          </coding>
        </code>
        <valueString value="A"/>
      </component>
      <component>
        <code>
          <coding>
            <system value="http://loinc.org"/>
            <code value="tbd-coordinate system"/>
            <display value="Genomic coordinate system"/>
          </coding>
        </code>
        <valueCodeableConcept>
          <coding>
            <system value="http://hl7.org/fhir/uv/genomics-reporting/CodeSystem/genetic-coordinate-system"/>
            <code value="1"/>
          </coding>
        </valueCodeableConcept>
      </component>
      <component>
        <code>
          <coding>
            <system value="http://loinc.org"/>
            <code value="81254-5"/>
            <display value="Genomic Allele start-end"/>
          </coding>
        </code>
        <valueRange>
          <low>
            <value value="18132047"/>
          </low>
        </valueRange>
      </component>
    </Observation>
  </contained>
  <contained>
    <Observation>
      <id value="dv-5c7f9b5bd0bc1"/>
      <meta>
        <profile value="http://hl7.org/fhir/uv/genomics-reporting/StructureDefinition/obs-described-variant"/>
      </meta>
      <status value="final"/>
      <category>
        <coding>
          <system value="http://terminology.hl7.org/CodeSystem/observation-category"/>
          <code value="laboratory"/>
        </coding>
      </category>
      <code>
        <coding>
          <system value="http://loinc.org"/>
          <code value="TBD-Described"/>
          <display value="Genetic variant assessment"/>
        </coding>
      </code>
      <subject>
        <reference value="Patient/NA12046"/>
      </subject>
      <issued value="2019-03-06T10:05:15+00:00"/>
      <valueCodeableConcept>
        <coding>
          <system value="http://loinc.org"/>
          <code value="LA9633-4"/>
          <display value="Present"/>
        </coding>
      </valueCodeableConcept>
      <component>
        <code>
          <coding>
            <system value="http://loinc.org"/>
            <code value="62374-4"/>
            <display value="Human reference sequence assembly version"/>
          </coding>
        </code>
        <valueCodeableConcept>
          <coding>
            <system value="http://loinc.org"/>
            <code value="LA14029-5"/>
            <display value="GRCh37"/>
          </coding>
        </valueCodeableConcept>
      </component>
      <component>
        <code>
          <coding>
            <system value="http://loinc.org"/>
            <code value="48013-7"/>
            <display value="Genomic reference sequence ID"/>
          </coding>
        </code>
        <valueCodeableConcept>
          <coding>
            <system value="http://www.ncbi.nlm.nih.gov/nuccore"/>
            <code value="NC_000006.11"/>
          </coding>
        </valueCodeableConcept>
      </component>
      <component>
        <code>
          <coding>
            <system value="http://loinc.org"/>
            <code value="53034-5"/>
            <display value="Allelic state"/>
          </coding>
        </code>
        <valueCodeableConcept>
          <coding>
            <system value="http://loinc.org"/>
            <code value="LA6706-1"/>
            <display value="heterozygous"/>
          </coding>
        </valueCodeableConcept>
      </component>
      <component>
        <code>
          <coding>
            <system value="http://loinc.org"/>
            <code value="69547-8"/>
            <display value="Genomic Ref allele"/>
          </coding>
        </code>
        <valueString value="C"/>
      </component>
      <component>
        <code>
          <coding>
            <system value="http://loinc.org"/>
            <code value="69551-0"/>
            <display value="Genomic Alt allele"/>
          </coding>
        </code>
        <valueString value="T"/>
      </component>
      <component>
        <code>
          <coding>
            <system value="http://loinc.org"/>
            <code value="tbd-coordinate system"/>
            <display value="Genomic coordinate system"/>
          </coding>
        </code>
        <valueCodeableConcept>
          <coding>
            <system value="http://hl7.org/fhir/uv/genomics-reporting/CodeSystem/genetic-coordinate-system"/>
            <code value="1"/>
          </coding>
        </valueCodeableConcept>
      </component>
      <component>
        <code>
          <coding>
            <system value="http://loinc.org"/>
            <code value="81254-5"/>
            <display value="Genomic Allele start-end"/>
          </coding>
        </code>
        <valueRange>
          <low>
            <value value="18132822"/>
          </low>
        </valueRange>
      </component>
    </Observation>
  </contained>
  <contained>
    <Observation>
      <id value="dv-5c7f9b5bd0c4f"/>
      <meta>
        <profile value="http://hl7.org/fhir/uv/genomics-reporting/StructureDefinition/obs-described-variant"/>
      </meta>
      <status value="final"/>
      <category>
        <coding>
          <system value="http://terminology.hl7.org/CodeSystem/observation-category"/>
          <code value="laboratory"/>
        </coding>
      </category>
      <code>
        <coding>
          <system value="http://loinc.org"/>
          <code value="TBD-Described"/>
          <display value="Genetic variant assessment"/>
        </coding>
      </code>
      <subject>
        <reference value="Patient/NA12046"/>
      </subject>
      <issued value="2019-03-06T10:05:15+00:00"/>
      <valueCodeableConcept>
        <coding>
          <system value="http://loinc.org"/>
          <code value="LA9633-4"/>
          <display value="Present"/>
        </coding>
      </valueCodeableConcept>
      <component>
        <code>
          <coding>
            <system value="http://loinc.org"/>
            <code value="62374-4"/>
            <display value="Human reference sequence assembly version"/>
          </coding>
        </code>
        <valueCodeableConcept>
          <coding>
            <system value="http://loinc.org"/>
            <code value="LA14029-5"/>
            <display value="GRCh37"/>
          </coding>
        </valueCodeableConcept>
      </component>
      <component>
        <code>
          <coding>
            <system value="http://loinc.org"/>
            <code value="48013-7"/>
            <display value="Genomic reference sequence ID"/>
          </coding>
        </code>
        <valueCodeableConcept>
          <coding>
            <system value="http://www.ncbi.nlm.nih.gov/nuccore"/>
            <code value="NC_000006.11"/>
          </coding>
        </valueCodeableConcept>
      </component>
      <component>
        <code>
          <coding>
            <system value="http://loinc.org"/>
            <code value="53034-5"/>
            <display value="Allelic state"/>
          </coding>
        </code>
        <valueCodeableConcept>
          <coding>
            <system value="http://loinc.org"/>
            <code value="LA6706-1"/>
            <display value="heterozygous"/>
          </coding>
        </valueCodeableConcept>
      </component>
      <component>
        <code>
          <coding>
            <system value="http://loinc.org"/>
            <code value="69547-8"/>
            <display value="Genomic Ref allele"/>
          </coding>
        </code>
        <valueString value="C"/>
      </component>
      <component>
        <code>
          <coding>
            <system value="http://loinc.org"/>
            <code value="69551-0"/>
            <display value="Genomic Alt allele"/>
          </coding>
        </code>
        <valueString value="G"/>
      </component>
      <component>
        <code>
          <coding>
            <system value="http://loinc.org"/>
            <code value="tbd-coordinate system"/>
            <display value="Genomic coordinate system"/>
          </coding>
        </code>
        <valueCodeableConcept>
          <coding>
            <system value="http://hl7.org/fhir/uv/genomics-reporting/CodeSystem/genetic-coordinate-system"/>
            <code value="1"/>
          </coding>
        </valueCodeableConcept>
      </component>
      <component>
        <code>
          <coding>
            <system value="http://loinc.org"/>
            <code value="81254-5"/>
            <display value="Genomic Allele start-end"/>
          </coding>
        </code>
        <valueRange>
          <low>
            <value value="18133131"/>
          </low>
        </valueRange>
      </component>
    </Observation>
  </contained>
  <contained>
    <Observation>
      <id value="dv-5c7f9b5bd0cf6"/>
      <meta>
        <profile value="http://hl7.org/fhir/uv/genomics-reporting/StructureDefinition/obs-described-variant"/>
      </meta>
      <status value="final"/>
      <category>
        <coding>
          <system value="http://terminology.hl7.org/CodeSystem/observation-category"/>
          <code value="laboratory"/>
        </coding>
      </category>
      <code>
        <coding>
          <system value="http://loinc.org"/>
          <code value="TBD-Described"/>
          <display value="Genetic variant assessment"/>
        </coding>
      </code>
      <subject>
        <reference value="Patient/NA12046"/>
      </subject>
      <issued value="2019-03-06T10:05:15+00:00"/>
      <valueCodeableConcept>
        <coding>
          <system value="http://loinc.org"/>
          <code value="LA9633-4"/>
          <display value="Present"/>
        </coding>
      </valueCodeableConcept>
      <component>
        <code>
          <coding>
            <system value="http://loinc.org"/>
            <code value="62374-4"/>
            <display value="Human reference sequence assembly version"/>
          </coding>
        </code>
        <valueCodeableConcept>
          <coding>
            <system value="http://loinc.org"/>
            <code value="LA14029-5"/>
            <display value="GRCh37"/>
          </coding>
        </valueCodeableConcept>
      </component>
      <component>
        <code>
          <coding>
            <system value="http://loinc.org"/>
            <code value="48013-7"/>
            <display value="Genomic reference sequence ID"/>
          </coding>
        </code>
        <valueCodeableConcept>
          <coding>
            <system value="http://www.ncbi.nlm.nih.gov/nuccore"/>
            <code value="NC_000006.11"/>
          </coding>
        </valueCodeableConcept>
      </component>
      <component>
        <code>
          <coding>
            <system value="http://loinc.org"/>
            <code value="53034-5"/>
            <display value="Allelic state"/>
          </coding>
        </code>
        <valueCodeableConcept>
          <coding>
            <system value="http://loinc.org"/>
            <code value="LA6706-1"/>
            <display value="heterozygous"/>
          </coding>
        </valueCodeableConcept>
      </component>
      <component>
        <code>
          <coding>
            <system value="http://loinc.org"/>
            <code value="69547-8"/>
            <display value="Genomic Ref allele"/>
          </coding>
        </code>
        <valueString value="CA"/>
      </component>
      <component>
        <code>
          <coding>
            <system value="http://loinc.org"/>
            <code value="69551-0"/>
            <display value="Genomic Alt allele"/>
          </coding>
        </code>
        <valueString value="C"/>
      </component>
      <component>
        <code>
          <coding>
            <system value="http://loinc.org"/>
            <code value="tbd-coordinate system"/>
            <display value="Genomic coordinate system"/>
          </coding>
        </code>
        <valueCodeableConcept>
          <coding>
            <system value="http://hl7.org/fhir/uv/genomics-reporting/CodeSystem/genetic-coordinate-system"/>
            <code value="1"/>
          </coding>
        </valueCodeableConcept>
      </component>
      <component>
        <code>
          <coding>
            <system value="http://loinc.org"/>
            <code value="81254-5"/>
            <display value="Genomic Allele start-end"/>
          </coding>
        </code>
        <valueRange>
          <low>
            <value value="18133586"/>
          </low>
        </valueRange>
      </component>
    </Observation>
  </contained>
  <contained>
    <Observation>
      <id value="dv-5c7f9b5bd0d87"/>
      <meta>
        <profile value="http://hl7.org/fhir/uv/genomics-reporting/StructureDefinition/obs-described-variant"/>
      </meta>
      <status value="final"/>
      <category>
        <coding>
          <system value="http://terminology.hl7.org/CodeSystem/observation-category"/>
          <code value="laboratory"/>
        </coding>
      </category>
      <code>
        <coding>
          <system value="http://loinc.org"/>
          <code value="TBD-Described"/>
          <display value="Genetic variant assessment"/>
        </coding>
      </code>
      <subject>
        <reference value="Patient/NA12046"/>
      </subject>
      <issued value="2019-03-06T10:05:15+00:00"/>
      <valueCodeableConcept>
        <coding>
          <system value="http://loinc.org"/>
          <code value="LA9633-4"/>
          <display value="Present"/>
        </coding>
      </valueCodeableConcept>
      <component>
        <code>
          <coding>
            <system value="http://loinc.org"/>
            <code value="62374-4"/>
            <display value="Human reference sequence assembly version"/>
          </coding>
        </code>
        <valueCodeableConcept>
          <coding>
            <system value="http://loinc.org"/>
            <code value="LA14029-5"/>
            <display value="GRCh37"/>
          </coding>
        </valueCodeableConcept>
      </component>
      <component>
        <code>
          <coding>
            <system value="http://loinc.org"/>
            <code value="48013-7"/>
            <display value="Genomic reference sequence ID"/>
          </coding>
        </code>
        <valueCodeableConcept>
          <coding>
            <system value="http://www.ncbi.nlm.nih.gov/nuccore"/>
            <code value="NC_000006.11"/>
          </coding>
        </valueCodeableConcept>
      </component>
      <component>
        <code>
          <coding>
            <system value="http://loinc.org"/>
            <code value="53034-5"/>
            <display value="Allelic state"/>
          </coding>
        </code>
        <valueCodeableConcept>
          <coding>
            <system value="http://loinc.org"/>
            <code value="LA6706-1"/>
            <display value="heterozygous"/>
          </coding>
        </valueCodeableConcept>
      </component>
      <component>
        <code>
          <coding>
            <system value="http://loinc.org"/>
            <code value="69547-8"/>
            <display value="Genomic Ref allele"/>
          </coding>
        </code>
        <valueString value="T"/>
      </component>
      <component>
        <code>
          <coding>
            <system value="http://loinc.org"/>
            <code value="69551-0"/>
            <display value="Genomic Alt allele"/>
          </coding>
        </code>
        <valueString value="C"/>
      </component>
      <component>
        <code>
          <coding>
            <system value="http://loinc.org"/>
            <code value="tbd-coordinate system"/>
            <display value="Genomic coordinate system"/>
          </coding>
        </code>
        <valueCodeableConcept>
          <coding>
            <system value="http://hl7.org/fhir/uv/genomics-reporting/CodeSystem/genetic-coordinate-system"/>
            <code value="1"/>
          </coding>
        </valueCodeableConcept>
      </component>
      <component>
        <code>
          <coding>
            <system value="http://loinc.org"/>
            <code value="81254-5"/>
            <display value="Genomic Allele start-end"/>
          </coding>
        </code>
        <valueRange>
          <low>
            <value value="18135178"/>
          </low>
        </valueRange>
      </component>
    </Observation>
  </contained>
  <contained>
    <Observation>
      <id value="dv-5c7f9b5bd0e12"/>
      <meta>
        <profile value="http://hl7.org/fhir/uv/genomics-reporting/StructureDefinition/obs-described-variant"/>
      </meta>
      <status value="final"/>
      <category>
        <coding>
          <system value="http://terminology.hl7.org/CodeSystem/observation-category"/>
          <code value="laboratory"/>
        </coding>
      </category>
      <code>
        <coding>
          <system value="http://loinc.org"/>
          <code value="TBD-Described"/>
          <display value="Genetic variant assessment"/>
        </coding>
      </code>
      <subject>
        <reference value="Patient/NA12046"/>
      </subject>
      <issued value="2019-03-06T10:05:15+00:00"/>
      <valueCodeableConcept>
        <coding>
          <system value="http://loinc.org"/>
          <code value="LA9633-4"/>
          <display value="Present"/>
        </coding>
      </valueCodeableConcept>
      <component>
        <code>
          <coding>
            <system value="http://loinc.org"/>
            <code value="62374-4"/>
            <display value="Human reference sequence assembly version"/>
          </coding>
        </code>
        <valueCodeableConcept>
          <coding>
            <system value="http://loinc.org"/>
            <code value="LA14029-5"/>
            <display value="GRCh37"/>
          </coding>
        </valueCodeableConcept>
      </component>
      <component>
        <code>
          <coding>
            <system value="http://loinc.org"/>
            <code value="48013-7"/>
            <display value="Genomic reference sequence ID"/>
          </coding>
        </code>
        <valueCodeableConcept>
          <coding>
            <system value="http://www.ncbi.nlm.nih.gov/nuccore"/>
            <code value="NC_000006.11"/>
          </coding>
        </valueCodeableConcept>
      </component>
      <component>
        <code>
          <coding>
            <system value="http://loinc.org"/>
            <code value="53034-5"/>
            <display value="Allelic state"/>
          </coding>
        </code>
        <valueCodeableConcept>
          <coding>
            <system value="http://loinc.org"/>
            <code value="LA6706-1"/>
            <display value="heterozygous"/>
          </coding>
        </valueCodeableConcept>
      </component>
      <component>
        <code>
          <coding>
            <system value="http://loinc.org"/>
            <code value="69547-8"/>
            <display value="Genomic Ref allele"/>
          </coding>
        </code>
        <valueString value="T"/>
      </component>
      <component>
        <code>
          <coding>
            <system value="http://loinc.org"/>
            <code value="69551-0"/>
            <display value="Genomic Alt allele"/>
          </coding>
        </code>
        <valueString value="C"/>
      </component>
      <component>
        <code>
          <coding>
            <system value="http://loinc.org"/>
            <code value="tbd-coordinate system"/>
            <display value="Genomic coordinate system"/>
          </coding>
        </code>
        <valueCodeableConcept>
          <coding>
            <system value="http://hl7.org/fhir/uv/genomics-reporting/CodeSystem/genetic-coordinate-system"/>
            <code value="1"/>
          </coding>
        </valueCodeableConcept>
      </component>
      <component>
        <code>
          <coding>
            <system value="http://loinc.org"/>
            <code value="81254-5"/>
            <display value="Genomic Allele start-end"/>
          </coding>
        </code>
        <valueRange>
          <low>
            <value value="18135690"/>
          </low>
        </valueRange>
      </component>
    </Observation>
  </contained>
  <contained>
    <Observation>
      <id value="dv-5c7f9b5bd0e9a"/>
      <meta>
        <profile value="http://hl7.org/fhir/uv/genomics-reporting/StructureDefinition/obs-described-variant"/>
      </meta>
      <status value="final"/>
      <category>
        <coding>
          <system value="http://terminology.hl7.org/CodeSystem/observation-category"/>
          <code value="laboratory"/>
        </coding>
      </category>
      <code>
        <coding>
          <system value="http://loinc.org"/>
          <code value="TBD-Described"/>
          <display value="Genetic variant assessment"/>
        </coding>
      </code>
      <subject>
        <reference value="Patient/NA12046"/>
      </subject>
      <issued value="2019-03-06T10:05:15+00:00"/>
      <valueCodeableConcept>
        <coding>
          <system value="http://loinc.org"/>
          <code value="LA9633-4"/>
          <display value="Present"/>
        </coding>
      </valueCodeableConcept>
      <component>
        <code>
          <coding>
            <system value="http://loinc.org"/>
            <code value="62374-4"/>
            <display value="Human reference sequence assembly version"/>
          </coding>
        </code>
        <valueCodeableConcept>
          <coding>
            <system value="http://loinc.org"/>
            <code value="LA14029-5"/>
            <display value="GRCh37"/>
          </coding>
        </valueCodeableConcept>
      </component>
      <component>
        <code>
          <coding>
            <system value="http://loinc.org"/>
            <code value="48013-7"/>
            <display value="Genomic reference sequence ID"/>
          </coding>
        </code>
        <valueCodeableConcept>
          <coding>
            <system value="http://www.ncbi.nlm.nih.gov/nuccore"/>
            <code value="NC_000006.11"/>
          </coding>
        </valueCodeableConcept>
      </component>
      <component>
        <code>
          <coding>
            <system value="http://loinc.org"/>
            <code value="53034-5"/>
            <display value="Allelic state"/>
          </coding>
        </code>
        <valueCodeableConcept>
          <coding>
            <system value="http://loinc.org"/>
            <code value="LA6706-1"/>
            <display value="heterozygous"/>
          </coding>
        </valueCodeableConcept>
      </component>
      <component>
        <code>
          <coding>
            <system value="http://loinc.org"/>
            <code value="69547-8"/>
            <display value="Genomic Ref allele"/>
          </coding>
        </code>
        <valueString value="C"/>
      </component>
      <component>
        <code>
          <coding>
            <system value="http://loinc.org"/>
            <code value="69551-0"/>
            <display value="Genomic Alt allele"/>
          </coding>
        </code>
        <valueString value="G"/>
      </component>
      <component>
        <code>
          <coding>
            <system value="http://loinc.org"/>
            <code value="tbd-coordinate system"/>
            <display value="Genomic coordinate system"/>
          </coding>
        </code>
        <valueCodeableConcept>
          <coding>
            <system value="http://hl7.org/fhir/uv/genomics-reporting/CodeSystem/genetic-coordinate-system"/>
            <code value="1"/>
          </coding>
        </valueCodeableConcept>
      </component>
      <component>
        <code>
          <coding>
            <system value="http://loinc.org"/>
            <code value="81254-5"/>
            <display value="Genomic Allele start-end"/>
          </coding>
        </code>
        <valueRange>
          <low>
            <value value="18135816"/>
          </low>
        </valueRange>
      </component>
    </Observation>
  </contained>
  <contained>
    <Observation>
      <id value="dv-5c7f9b5bd0f1b"/>
      <meta>
        <profile value="http://hl7.org/fhir/uv/genomics-reporting/StructureDefinition/obs-described-variant"/>
      </meta>
      <status value="final"/>
      <category>
        <coding>
          <system value="http://terminology.hl7.org/CodeSystem/observation-category"/>
          <code value="laboratory"/>
        </coding>
      </category>
      <code>
        <coding>
          <system value="http://loinc.org"/>
          <code value="TBD-Described"/>
          <display value="Genetic variant assessment"/>
        </coding>
      </code>
      <subject>
        <reference value="Patient/NA12046"/>
      </subject>
      <issued value="2019-03-06T10:05:15+00:00"/>
      <valueCodeableConcept>
        <coding>
          <system value="http://loinc.org"/>
          <code value="LA9633-4"/>
          <display value="Present"/>
        </coding>
      </valueCodeableConcept>
      <component>
        <code>
          <coding>
            <system value="http://loinc.org"/>
            <code value="62374-4"/>
            <display value="Human reference sequence assembly version"/>
          </coding>
        </code>
        <valueCodeableConcept>
          <coding>
            <system value="http://loinc.org"/>
            <code value="LA14029-5"/>
            <display value="GRCh37"/>
          </coding>
        </valueCodeableConcept>
      </component>
      <component>
        <code>
          <coding>
            <system value="http://loinc.org"/>
            <code value="48013-7"/>
            <display value="Genomic reference sequence ID"/>
          </coding>
        </code>
        <valueCodeableConcept>
          <coding>
            <system value="http://www.ncbi.nlm.nih.gov/nuccore"/>
            <code value="NC_000006.11"/>
          </coding>
        </valueCodeableConcept>
      </component>
      <component>
        <code>
          <coding>
            <system value="http://loinc.org"/>
            <code value="53034-5"/>
            <display value="Allelic state"/>
          </coding>
        </code>
        <valueCodeableConcept>
          <coding>
            <system value="http://loinc.org"/>
            <code value="LA6706-1"/>
            <display value="heterozygous"/>
          </coding>
        </valueCodeableConcept>
      </component>
      <component>
        <code>
          <coding>
            <system value="http://loinc.org"/>
            <code value="69547-8"/>
            <display value="Genomic Ref allele"/>
          </coding>
        </code>
        <valueString value="T"/>
      </component>
      <component>
        <code>
          <coding>
            <system value="http://loinc.org"/>
            <code value="69551-0"/>
            <display value="Genomic Alt allele"/>
          </coding>
        </code>
        <valueString value="G"/>
      </component>
      <component>
        <code>
          <coding>
            <system value="http://loinc.org"/>
            <code value="tbd-coordinate system"/>
            <display value="Genomic coordinate system"/>
          </coding>
        </code>
        <valueCodeableConcept>
          <coding>
            <system value="http://hl7.org/fhir/uv/genomics-reporting/CodeSystem/genetic-coordinate-system"/>
            <code value="1"/>
          </coding>
        </valueCodeableConcept>
      </component>
      <component>
        <code>
          <coding>
            <system value="http://loinc.org"/>
            <code value="81254-5"/>
            <display value="Genomic Allele start-end"/>
          </coding>
        </code>
        <valueRange>
          <low>
            <value value="18135993"/>
          </low>
        </valueRange>
      </component>
    </Observation>
  </contained>
  <contained>
    <Observation>
      <id value="dv-5c7f9b5bd0fa8"/>
      <meta>
        <profile value="http://hl7.org/fhir/uv/genomics-reporting/StructureDefinition/obs-described-variant"/>
      </meta>
      <status value="final"/>
      <category>
        <coding>
          <system value="http://terminology.hl7.org/CodeSystem/observation-category"/>
          <code value="laboratory"/>
        </coding>
      </category>
      <code>
        <coding>
          <system value="http://loinc.org"/>
          <code value="TBD-Described"/>
          <display value="Genetic variant assessment"/>
        </coding>
      </code>
      <subject>
        <reference value="Patient/NA12046"/>
      </subject>
      <issued value="2019-03-06T10:05:15+00:00"/>
      <valueCodeableConcept>
        <coding>
          <system value="http://loinc.org"/>
          <code value="LA9633-4"/>
          <display value="Present"/>
        </coding>
      </valueCodeableConcept>
      <component>
        <code>
          <coding>
            <system value="http://loinc.org"/>
            <code value="62374-4"/>
            <display value="Human reference sequence assembly version"/>
          </coding>
        </code>
        <valueCodeableConcept>
          <coding>
            <system value="http://loinc.org"/>
            <code value="LA14029-5"/>
            <display value="GRCh37"/>
          </coding>
        </valueCodeableConcept>
      </component>
      <component>
        <code>
          <coding>
            <system value="http://loinc.org"/>
            <code value="48013-7"/>
            <display value="Genomic reference sequence ID"/>
          </coding>
        </code>
        <valueCodeableConcept>
          <coding>
            <system value="http://www.ncbi.nlm.nih.gov/nuccore"/>
            <code value="NC_000006.11"/>
          </coding>
        </valueCodeableConcept>
      </component>
      <component>
        <code>
          <coding>
            <system value="http://loinc.org"/>
            <code value="53034-5"/>
            <display value="Allelic state"/>
          </coding>
        </code>
        <valueCodeableConcept>
          <coding>
            <system value="http://loinc.org"/>
            <code value="LA6706-1"/>
            <display value="heterozygous"/>
          </coding>
        </valueCodeableConcept>
      </component>
      <component>
        <code>
          <coding>
            <system value="http://loinc.org"/>
            <code value="69547-8"/>
            <display value="Genomic Ref allele"/>
          </coding>
        </code>
        <valueString value="T"/>
      </component>
      <component>
        <code>
          <coding>
            <system value="http://loinc.org"/>
            <code value="69551-0"/>
            <display value="Genomic Alt allele"/>
          </coding>
        </code>
        <valueString value="C"/>
      </component>
      <component>
        <code>
          <coding>
            <system value="http://loinc.org"/>
            <code value="tbd-coordinate system"/>
            <display value="Genomic coordinate system"/>
          </coding>
        </code>
        <valueCodeableConcept>
          <coding>
            <system value="http://hl7.org/fhir/uv/genomics-reporting/CodeSystem/genetic-coordinate-system"/>
            <code value="1"/>
          </coding>
        </valueCodeableConcept>
      </component>
      <component>
        <code>
          <coding>
            <system value="http://loinc.org"/>
            <code value="81254-5"/>
            <display value="Genomic Allele start-end"/>
          </coding>
        </code>
        <valueRange>
          <low>
            <value value="18137036"/>
          </low>
        </valueRange>
      </component>
    </Observation>
  </contained>
  <contained>
    <Observation>
      <id value="dv-5c7f9b5bd103b"/>
      <meta>
        <profile value="http://hl7.org/fhir/uv/genomics-reporting/StructureDefinition/obs-described-variant"/>
      </meta>
      <status value="final"/>
      <category>
        <coding>
          <system value="http://terminology.hl7.org/CodeSystem/observation-category"/>
          <code value="laboratory"/>
        </coding>
      </category>
      <code>
        <coding>
          <system value="http://loinc.org"/>
          <code value="TBD-Described"/>
          <display value="Genetic variant assessment"/>
        </coding>
      </code>
      <subject>
        <reference value="Patient/NA12046"/>
      </subject>
      <issued value="2019-03-06T10:05:15+00:00"/>
      <valueCodeableConcept>
        <coding>
          <system value="http://loinc.org"/>
          <code value="LA9633-4"/>
          <display value="Present"/>
        </coding>
      </valueCodeableConcept>
      <component>
        <code>
          <coding>
            <system value="http://loinc.org"/>
            <code value="62374-4"/>
            <display value="Human reference sequence assembly version"/>
          </coding>
        </code>
        <valueCodeableConcept>
          <coding>
            <system value="http://loinc.org"/>
            <code value="LA14029-5"/>
            <display value="GRCh37"/>
          </coding>
        </valueCodeableConcept>
      </component>
      <component>
        <code>
          <coding>
            <system value="http://loinc.org"/>
            <code value="48013-7"/>
            <display value="Genomic reference sequence ID"/>
          </coding>
        </code>
        <valueCodeableConcept>
          <coding>
            <system value="http://www.ncbi.nlm.nih.gov/nuccore"/>
            <code value="NC_000006.11"/>
          </coding>
        </valueCodeableConcept>
      </component>
      <component>
        <code>
          <coding>
            <system value="http://loinc.org"/>
            <code value="53034-5"/>
            <display value="Allelic state"/>
          </coding>
        </code>
        <valueCodeableConcept>
          <coding>
            <system value="http://loinc.org"/>
            <code value="LA6706-1"/>
            <display value="heterozygous"/>
          </coding>
        </valueCodeableConcept>
      </component>
      <component>
        <code>
          <coding>
            <system value="http://loinc.org"/>
            <code value="69547-8"/>
            <display value="Genomic Ref allele"/>
          </coding>
        </code>
        <valueString value="GAC"/>
      </component>
      <component>
        <code>
          <coding>
            <system value="http://loinc.org"/>
            <code value="69551-0"/>
            <display value="Genomic Alt allele"/>
          </coding>
        </code>
        <valueString value="G"/>
      </component>
      <component>
        <code>
          <coding>
            <system value="http://loinc.org"/>
            <code value="tbd-coordinate system"/>
            <display value="Genomic coordinate system"/>
          </coding>
        </code>
        <valueCodeableConcept>
          <coding>
            <system value="http://hl7.org/fhir/uv/genomics-reporting/CodeSystem/genetic-coordinate-system"/>
            <code value="1"/>
          </coding>
        </valueCodeableConcept>
      </component>
      <component>
        <code>
          <coding>
            <system value="http://loinc.org"/>
            <code value="81254-5"/>
            <display value="Genomic Allele start-end"/>
          </coding>
        </code>
        <valueRange>
          <low>
            <value value="18137926"/>
          </low>
        </valueRange>
      </component>
    </Observation>
  </contained>
  <contained>
    <Observation>
      <id value="dv-5c7f9b5bd10d4"/>
      <meta>
        <profile value="http://hl7.org/fhir/uv/genomics-reporting/StructureDefinition/obs-described-variant"/>
      </meta>
      <status value="final"/>
      <category>
        <coding>
          <system value="http://terminology.hl7.org/CodeSystem/observation-category"/>
          <code value="laboratory"/>
        </coding>
      </category>
      <code>
        <coding>
          <system value="http://loinc.org"/>
          <code value="TBD-Described"/>
          <display value="Genetic variant assessment"/>
        </coding>
      </code>
      <subject>
        <reference value="Patient/NA12046"/>
      </subject>
      <issued value="2019-03-06T10:05:15+00:00"/>
      <valueCodeableConcept>
        <coding>
          <system value="http://loinc.org"/>
          <code value="LA9633-4"/>
          <display value="Present"/>
        </coding>
      </valueCodeableConcept>
      <component>
        <code>
          <coding>
            <system value="http://loinc.org"/>
            <code value="62374-4"/>
            <display value="Human reference sequence assembly version"/>
          </coding>
        </code>
        <valueCodeableConcept>
          <coding>
            <system value="http://loinc.org"/>
            <code value="LA14029-5"/>
            <display value="GRCh37"/>
          </coding>
        </valueCodeableConcept>
      </component>
      <component>
        <code>
          <coding>
            <system value="http://loinc.org"/>
            <code value="48013-7"/>
            <display value="Genomic reference sequence ID"/>
          </coding>
        </code>
        <valueCodeableConcept>
          <coding>
            <system value="http://www.ncbi.nlm.nih.gov/nuccore"/>
            <code value="NC_000006.11"/>
          </coding>
        </valueCodeableConcept>
      </component>
      <component>
        <code>
          <coding>
            <system value="http://loinc.org"/>
            <code value="53034-5"/>
            <display value="Allelic state"/>
          </coding>
        </code>
        <valueCodeableConcept>
          <coding>
            <system value="http://loinc.org"/>
            <code value="LA6706-1"/>
            <display value="heterozygous"/>
          </coding>
        </valueCodeableConcept>
      </component>
      <component>
        <code>
          <coding>
            <system value="http://loinc.org"/>
            <code value="69547-8"/>
            <display value="Genomic Ref allele"/>
          </coding>
        </code>
        <valueString value="T"/>
      </component>
      <component>
        <code>
          <coding>
            <system value="http://loinc.org"/>
            <code value="69551-0"/>
            <display value="Genomic Alt allele"/>
          </coding>
        </code>
        <valueString value="C"/>
      </component>
      <component>
        <code>
          <coding>
            <system value="http://loinc.org"/>
            <code value="tbd-coordinate system"/>
            <display value="Genomic coordinate system"/>
          </coding>
        </code>
        <valueCodeableConcept>
          <coding>
            <system value="http://hl7.org/fhir/uv/genomics-reporting/CodeSystem/genetic-coordinate-system"/>
            <code value="1"/>
          </coding>
        </valueCodeableConcept>
      </component>
      <component>
        <code>
          <coding>
            <system value="http://loinc.org"/>
            <code value="81254-5"/>
            <display value="Genomic Allele start-end"/>
          </coding>
        </code>
        <valueRange>
          <low>
            <value value="18138238"/>
          </low>
        </valueRange>
      </component>
    </Observation>
  </contained>
  <contained>
    <Observation>
      <id value="dv-5c7f9b5bd1163"/>
      <meta>
        <profile value="http://hl7.org/fhir/uv/genomics-reporting/StructureDefinition/obs-described-variant"/>
      </meta>
      <status value="final"/>
      <category>
        <coding>
          <system value="http://terminology.hl7.org/CodeSystem/observation-category"/>
          <code value="laboratory"/>
        </coding>
      </category>
      <code>
        <coding>
          <system value="http://loinc.org"/>
          <code value="TBD-Described"/>
          <display value="Genetic variant assessment"/>
        </coding>
      </code>
      <subject>
        <reference value="Patient/NA12046"/>
      </subject>
      <issued value="2019-03-06T10:05:15+00:00"/>
      <valueCodeableConcept>
        <coding>
          <system value="http://loinc.org"/>
          <code value="LA9633-4"/>
          <display value="Present"/>
        </coding>
      </valueCodeableConcept>
      <component>
        <code>
          <coding>
            <system value="http://loinc.org"/>
            <code value="62374-4"/>
            <display value="Human reference sequence assembly version"/>
          </coding>
        </code>
        <valueCodeableConcept>
          <coding>
            <system value="http://loinc.org"/>
            <code value="LA14029-5"/>
            <display value="GRCh37"/>
          </coding>
        </valueCodeableConcept>
      </component>
      <component>
        <code>
          <coding>
            <system value="http://loinc.org"/>
            <code value="48013-7"/>
            <display value="Genomic reference sequence ID"/>
          </coding>
        </code>
        <valueCodeableConcept>
          <coding>
            <system value="http://www.ncbi.nlm.nih.gov/nuccore"/>
            <code value="NC_000006.11"/>
          </coding>
        </valueCodeableConcept>
      </component>
      <component>
        <code>
          <coding>
            <system value="http://loinc.org"/>
            <code value="53034-5"/>
            <display value="Allelic state"/>
          </coding>
        </code>
        <valueCodeableConcept>
          <coding>
            <system value="http://loinc.org"/>
            <code value="LA6706-1"/>
            <display value="heterozygous"/>
          </coding>
        </valueCodeableConcept>
      </component>
      <component>
        <code>
          <coding>
            <system value="http://loinc.org"/>
            <code value="69547-8"/>
            <display value="Genomic Ref allele"/>
          </coding>
        </code>
        <valueString value="C"/>
      </component>
      <component>
        <code>
          <coding>
            <system value="http://loinc.org"/>
            <code value="69551-0"/>
            <display value="Genomic Alt allele"/>
          </coding>
        </code>
        <valueString value="T"/>
      </component>
      <component>
        <code>
          <coding>
            <system value="http://loinc.org"/>
            <code value="tbd-coordinate system"/>
            <display value="Genomic coordinate system"/>
          </coding>
        </code>
        <valueCodeableConcept>
          <coding>
            <system value="http://hl7.org/fhir/uv/genomics-reporting/CodeSystem/genetic-coordinate-system"/>
            <code value="1"/>
          </coding>
        </valueCodeableConcept>
      </component>
      <component>
        <code>
          <coding>
            <system value="http://loinc.org"/>
            <code value="81254-5"/>
            <display value="Genomic Allele start-end"/>
          </coding>
        </code>
        <valueRange>
          <low>
            <value value="18138306"/>
          </low>
        </valueRange>
      </component>
    </Observation>
  </contained>
  <contained>
    <Observation>
      <id value="dv-5c7f9b5bd11f2"/>
      <meta>
        <profile value="http://hl7.org/fhir/uv/genomics-reporting/StructureDefinition/obs-described-variant"/>
      </meta>
      <status value="final"/>
      <category>
        <coding>
          <system value="http://terminology.hl7.org/CodeSystem/observation-category"/>
          <code value="laboratory"/>
        </coding>
      </category>
      <code>
        <coding>
          <system value="http://loinc.org"/>
          <code value="TBD-Described"/>
          <display value="Genetic variant assessment"/>
        </coding>
      </code>
      <subject>
        <reference value="Patient/NA12046"/>
      </subject>
      <issued value="2019-03-06T10:05:15+00:00"/>
      <valueCodeableConcept>
        <coding>
          <system value="http://loinc.org"/>
          <code value="LA9633-4"/>
          <display value="Present"/>
        </coding>
      </valueCodeableConcept>
      <component>
        <code>
          <coding>
            <system value="http://loinc.org"/>
            <code value="62374-4"/>
            <display value="Human reference sequence assembly version"/>
          </coding>
        </code>
        <valueCodeableConcept>
          <coding>
            <system value="http://loinc.org"/>
            <code value="LA14029-5"/>
            <display value="GRCh37"/>
          </coding>
        </valueCodeableConcept>
      </component>
      <component>
        <code>
          <coding>
            <system value="http://loinc.org"/>
            <code value="48013-7"/>
            <display value="Genomic reference sequence ID"/>
          </coding>
        </code>
        <valueCodeableConcept>
          <coding>
            <system value="http://www.ncbi.nlm.nih.gov/nuccore"/>
            <code value="NC_000006.11"/>
          </coding>
        </valueCodeableConcept>
      </component>
      <component>
        <code>
          <coding>
            <system value="http://loinc.org"/>
            <code value="53034-5"/>
            <display value="Allelic state"/>
          </coding>
        </code>
        <valueCodeableConcept>
          <coding>
            <system value="http://loinc.org"/>
            <code value="LA6706-1"/>
            <display value="heterozygous"/>
          </coding>
        </valueCodeableConcept>
      </component>
      <component>
        <code>
          <coding>
            <system value="http://loinc.org"/>
            <code value="69547-8"/>
            <display value="Genomic Ref allele"/>
          </coding>
        </code>
        <valueString value="A"/>
      </component>
      <component>
        <code>
          <coding>
            <system value="http://loinc.org"/>
            <code value="69551-0"/>
            <display value="Genomic Alt allele"/>
          </coding>
        </code>
        <valueString value="G"/>
      </component>
      <component>
        <code>
          <coding>
            <system value="http://loinc.org"/>
            <code value="tbd-coordinate system"/>
            <display value="Genomic coordinate system"/>
          </coding>
        </code>
        <valueCodeableConcept>
          <coding>
            <system value="http://hl7.org/fhir/uv/genomics-reporting/CodeSystem/genetic-coordinate-system"/>
            <code value="1"/>
          </coding>
        </valueCodeableConcept>
      </component>
      <component>
        <code>
          <coding>
            <system value="http://loinc.org"/>
            <code value="81254-5"/>
            <display value="Genomic Allele start-end"/>
          </coding>
        </code>
        <valueRange>
          <low>
            <value value="18138552"/>
          </low>
        </valueRange>
      </component>
    </Observation>
  </contained>
  <contained>
    <Observation>
      <id value="dv-5c7f9b5bd1273"/>
      <meta>
        <profile value="http://hl7.org/fhir/uv/genomics-reporting/StructureDefinition/obs-described-variant"/>
      </meta>
      <status value="final"/>
      <category>
        <coding>
          <system value="http://terminology.hl7.org/CodeSystem/observation-category"/>
          <code value="laboratory"/>
        </coding>
      </category>
      <code>
        <coding>
          <system value="http://loinc.org"/>
          <code value="TBD-Described"/>
          <display value="Genetic variant assessment"/>
        </coding>
      </code>
      <subject>
        <reference value="Patient/NA12046"/>
      </subject>
      <issued value="2019-03-06T10:05:15+00:00"/>
      <valueCodeableConcept>
        <coding>
          <system value="http://loinc.org"/>
          <code value="LA9633-4"/>
          <display value="Present"/>
        </coding>
      </valueCodeableConcept>
      <component>
        <code>
          <coding>
            <system value="http://loinc.org"/>
            <code value="62374-4"/>
            <display value="Human reference sequence assembly version"/>
          </coding>
        </code>
        <valueCodeableConcept>
          <coding>
            <system value="http://loinc.org"/>
            <code value="LA14029-5"/>
            <display value="GRCh37"/>
          </coding>
        </valueCodeableConcept>
      </component>
      <component>
        <code>
          <coding>
            <system value="http://loinc.org"/>
            <code value="48013-7"/>
            <display value="Genomic reference sequence ID"/>
          </coding>
        </code>
        <valueCodeableConcept>
          <coding>
            <system value="http://www.ncbi.nlm.nih.gov/nuccore"/>
            <code value="NC_000006.11"/>
          </coding>
        </valueCodeableConcept>
      </component>
      <component>
        <code>
          <coding>
            <system value="http://loinc.org"/>
            <code value="53034-5"/>
            <display value="Allelic state"/>
          </coding>
        </code>
        <valueCodeableConcept>
          <coding>
            <system value="http://loinc.org"/>
            <code value="LA6706-1"/>
            <display value="heterozygous"/>
          </coding>
        </valueCodeableConcept>
      </component>
      <component>
        <code>
          <coding>
            <system value="http://loinc.org"/>
            <code value="69547-8"/>
            <display value="Genomic Ref allele"/>
          </coding>
        </code>
        <valueString value="A"/>
      </component>
      <component>
        <code>
          <coding>
            <system value="http://loinc.org"/>
            <code value="69551-0"/>
            <display value="Genomic Alt allele"/>
          </coding>
        </code>
        <valueString value="C"/>
      </component>
      <component>
        <code>
          <coding>
            <system value="http://loinc.org"/>
            <code value="tbd-coordinate system"/>
            <display value="Genomic coordinate system"/>
          </coding>
        </code>
        <valueCodeableConcept>
          <coding>
            <system value="http://hl7.org/fhir/uv/genomics-reporting/CodeSystem/genetic-coordinate-system"/>
            <code value="1"/>
          </coding>
        </valueCodeableConcept>
      </component>
      <component>
        <code>
          <coding>
            <system value="http://loinc.org"/>
            <code value="81254-5"/>
            <display value="Genomic Allele start-end"/>
          </coding>
        </code>
        <valueRange>
          <low>
            <value value="18138827"/>
          </low>
        </valueRange>
      </component>
    </Observation>
  </contained>
  <contained>
    <Observation>
      <id value="dv-5c7f9b5bd12f0"/>
      <meta>
        <profile value="http://hl7.org/fhir/uv/genomics-reporting/StructureDefinition/obs-described-variant"/>
      </meta>
      <status value="final"/>
      <category>
        <coding>
          <system value="http://terminology.hl7.org/CodeSystem/observation-category"/>
          <code value="laboratory"/>
        </coding>
      </category>
      <code>
        <coding>
          <system value="http://loinc.org"/>
          <code value="TBD-Described"/>
          <display value="Genetic variant assessment"/>
        </coding>
      </code>
      <subject>
        <reference value="Patient/NA12046"/>
      </subject>
      <issued value="2019-03-06T10:05:15+00:00"/>
      <valueCodeableConcept>
        <coding>
          <system value="http://loinc.org"/>
          <code value="LA9633-4"/>
          <display value="Present"/>
        </coding>
      </valueCodeableConcept>
      <component>
        <code>
          <coding>
            <system value="http://loinc.org"/>
            <code value="62374-4"/>
            <display value="Human reference sequence assembly version"/>
          </coding>
        </code>
        <valueCodeableConcept>
          <coding>
            <system value="http://loinc.org"/>
            <code value="LA14029-5"/>
            <display value="GRCh37"/>
          </coding>
        </valueCodeableConcept>
      </component>
      <component>
        <code>
          <coding>
            <system value="http://loinc.org"/>
            <code value="48013-7"/>
            <display value="Genomic reference sequence ID"/>
          </coding>
        </code>
        <valueCodeableConcept>
          <coding>
            <system value="http://www.ncbi.nlm.nih.gov/nuccore"/>
            <code value="NC_000006.11"/>
          </coding>
        </valueCodeableConcept>
      </component>
      <component>
        <code>
          <coding>
            <system value="http://loinc.org"/>
            <code value="53034-5"/>
            <display value="Allelic state"/>
          </coding>
        </code>
        <valueCodeableConcept>
          <coding>
            <system value="http://loinc.org"/>
            <code value="LA6706-1"/>
            <display value="heterozygous"/>
          </coding>
        </valueCodeableConcept>
      </component>
      <component>
        <code>
          <coding>
            <system value="http://loinc.org"/>
            <code value="69547-8"/>
            <display value="Genomic Ref allele"/>
          </coding>
        </code>
        <valueString value="G"/>
      </component>
      <component>
        <code>
          <coding>
            <system value="http://loinc.org"/>
            <code value="69551-0"/>
            <display value="Genomic Alt allele"/>
          </coding>
        </code>
        <valueString value="A"/>
      </component>
      <component>
        <code>
          <coding>
            <system value="http://loinc.org"/>
            <code value="tbd-coordinate system"/>
            <display value="Genomic coordinate system"/>
          </coding>
        </code>
        <valueCodeableConcept>
          <coding>
            <system value="http://hl7.org/fhir/uv/genomics-reporting/CodeSystem/genetic-coordinate-system"/>
            <code value="1"/>
          </coding>
        </valueCodeableConcept>
      </component>
      <component>
        <code>
          <coding>
            <system value="http://loinc.org"/>
            <code value="81254-5"/>
            <display value="Genomic Allele start-end"/>
          </coding>
        </code>
        <valueRange>
          <low>
            <value value="18139214"/>
          </low>
        </valueRange>
      </component>
    </Observation>
  </contained>
  <contained>
    <Observation>
      <id value="dv-5c7f9b5bd136e"/>
      <meta>
        <profile value="http://hl7.org/fhir/uv/genomics-reporting/StructureDefinition/obs-described-variant"/>
      </meta>
      <status value="final"/>
      <category>
        <coding>
          <system value="http://terminology.hl7.org/CodeSystem/observation-category"/>
          <code value="laboratory"/>
        </coding>
      </category>
      <code>
        <coding>
          <system value="http://loinc.org"/>
          <code value="TBD-Described"/>
          <display value="Genetic variant assessment"/>
        </coding>
      </code>
      <subject>
        <reference value="Patient/NA12046"/>
      </subject>
      <issued value="2019-03-06T10:05:15+00:00"/>
      <valueCodeableConcept>
        <coding>
          <system value="http://loinc.org"/>
          <code value="LA9633-4"/>
          <display value="Present"/>
        </coding>
      </valueCodeableConcept>
      <component>
        <code>
          <coding>
            <system value="http://loinc.org"/>
            <code value="62374-4"/>
            <display value="Human reference sequence assembly version"/>
          </coding>
        </code>
        <valueCodeableConcept>
          <coding>
            <system value="http://loinc.org"/>
            <code value="LA14029-5"/>
            <display value="GRCh37"/>
          </coding>
        </valueCodeableConcept>
      </component>
      <component>
        <code>
          <coding>
            <system value="http://loinc.org"/>
            <code value="48013-7"/>
            <display value="Genomic reference sequence ID"/>
          </coding>
        </code>
        <valueCodeableConcept>
          <coding>
            <system value="http://www.ncbi.nlm.nih.gov/nuccore"/>
            <code value="NC_000006.11"/>
          </coding>
        </valueCodeableConcept>
      </component>
      <component>
        <code>
          <coding>
            <system value="http://loinc.org"/>
            <code value="53034-5"/>
            <display value="Allelic state"/>
          </coding>
        </code>
        <valueCodeableConcept>
          <coding>
            <system value="http://loinc.org"/>
            <code value="LA6706-1"/>
            <display value="heterozygous"/>
          </coding>
        </valueCodeableConcept>
      </component>
      <component>
        <code>
          <coding>
            <system value="http://loinc.org"/>
            <code value="69547-8"/>
            <display value="Genomic Ref allele"/>
          </coding>
        </code>
        <valueString value="A"/>
      </component>
      <component>
        <code>
          <coding>
            <system value="http://loinc.org"/>
            <code value="69551-0"/>
            <display value="Genomic Alt allele"/>
          </coding>
        </code>
        <valueString value="T"/>
      </component>
      <component>
        <code>
          <coding>
            <system value="http://loinc.org"/>
            <code value="tbd-coordinate system"/>
            <display value="Genomic coordinate system"/>
          </coding>
        </code>
        <valueCodeableConcept>
          <coding>
            <system value="http://hl7.org/fhir/uv/genomics-reporting/CodeSystem/genetic-coordinate-system"/>
            <code value="1"/>
          </coding>
        </valueCodeableConcept>
      </component>
      <component>
        <code>
          <coding>
            <system value="http://loinc.org"/>
            <code value="81254-5"/>
            <display value="Genomic Allele start-end"/>
          </coding>
        </code>
        <valueRange>
          <low>
            <value value="18139802"/>
          </low>
        </valueRange>
      </component>
    </Observation>
  </contained>
  <contained>
    <Observation>
      <id value="dv-5c7f9b5bd13eb"/>
      <meta>
        <profile value="http://hl7.org/fhir/uv/genomics-reporting/StructureDefinition/obs-described-variant"/>
      </meta>
      <status value="final"/>
      <category>
        <coding>
          <system value="http://terminology.hl7.org/CodeSystem/observation-category"/>
          <code value="laboratory"/>
        </coding>
      </category>
      <code>
        <coding>
          <system value="http://loinc.org"/>
          <code value="TBD-Described"/>
          <display value="Genetic variant assessment"/>
        </coding>
      </code>
      <subject>
        <reference value="Patient/NA12046"/>
      </subject>
      <issued value="2019-03-06T10:05:15+00:00"/>
      <valueCodeableConcept>
        <coding>
          <system value="http://loinc.org"/>
          <code value="LA9633-4"/>
          <display value="Present"/>
        </coding>
      </valueCodeableConcept>
      <component>
        <code>
          <coding>
            <system value="http://loinc.org"/>
            <code value="62374-4"/>
            <display value="Human reference sequence assembly version"/>
          </coding>
        </code>
        <valueCodeableConcept>
          <coding>
            <system value="http://loinc.org"/>
            <code value="LA14029-5"/>
            <display value="GRCh37"/>
          </coding>
        </valueCodeableConcept>
      </component>
      <component>
        <code>
          <coding>
            <system value="http://loinc.org"/>
            <code value="48013-7"/>
            <display value="Genomic reference sequence ID"/>
          </coding>
        </code>
        <valueCodeableConcept>
          <coding>
            <system value="http://www.ncbi.nlm.nih.gov/nuccore"/>
            <code value="NC_000006.11"/>
          </coding>
        </valueCodeableConcept>
      </component>
      <component>
        <code>
          <coding>
            <system value="http://loinc.org"/>
            <code value="53034-5"/>
            <display value="Allelic state"/>
          </coding>
        </code>
        <valueCodeableConcept>
          <coding>
            <system value="http://loinc.org"/>
            <code value="LA6706-1"/>
            <display value="heterozygous"/>
          </coding>
        </valueCodeableConcept>
      </component>
      <component>
        <code>
          <coding>
            <system value="http://loinc.org"/>
            <code value="69547-8"/>
            <display value="Genomic Ref allele"/>
          </coding>
        </code>
        <valueString value="A"/>
      </component>
      <component>
        <code>
          <coding>
            <system value="http://loinc.org"/>
            <code value="69551-0"/>
            <display value="Genomic Alt allele"/>
          </coding>
        </code>
        <valueString value="G"/>
      </component>
      <component>
        <code>
          <coding>
            <system value="http://loinc.org"/>
            <code value="tbd-coordinate system"/>
            <display value="Genomic coordinate system"/>
          </coding>
        </code>
        <valueCodeableConcept>
          <coding>
            <system value="http://hl7.org/fhir/uv/genomics-reporting/CodeSystem/genetic-coordinate-system"/>
            <code value="1"/>
          </coding>
        </valueCodeableConcept>
      </component>
      <component>
        <code>
          <coding>
            <system value="http://loinc.org"/>
            <code value="81254-5"/>
            <display value="Genomic Allele start-end"/>
          </coding>
        </code>
        <valueRange>
          <low>
            <value value="18140867"/>
          </low>
        </valueRange>
      </component>
    </Observation>
  </contained>
  <contained>
    <Observation>
      <id value="dv-5c7f9b5bd1469"/>
      <meta>
        <profile value="http://hl7.org/fhir/uv/genomics-reporting/StructureDefinition/obs-described-variant"/>
      </meta>
      <status value="final"/>
      <category>
        <coding>
          <system value="http://terminology.hl7.org/CodeSystem/observation-category"/>
          <code value="laboratory"/>
        </coding>
      </category>
      <code>
        <coding>
          <system value="http://loinc.org"/>
          <code value="TBD-Described"/>
          <display value="Genetic variant assessment"/>
        </coding>
      </code>
      <subject>
        <reference value="Patient/NA12046"/>
      </subject>
      <issued value="2019-03-06T10:05:15+00:00"/>
      <valueCodeableConcept>
        <coding>
          <system value="http://loinc.org"/>
          <code value="LA9633-4"/>
          <display value="Present"/>
        </coding>
      </valueCodeableConcept>
      <component>
        <code>
          <coding>
            <system value="http://loinc.org"/>
            <code value="62374-4"/>
            <display value="Human reference sequence assembly version"/>
          </coding>
        </code>
        <valueCodeableConcept>
          <coding>
            <system value="http://loinc.org"/>
            <code value="LA14029-5"/>
            <display value="GRCh37"/>
          </coding>
        </valueCodeableConcept>
      </component>
      <component>
        <code>
          <coding>
            <system value="http://loinc.org"/>
            <code value="48013-7"/>
            <display value="Genomic reference sequence ID"/>
          </coding>
        </code>
        <valueCodeableConcept>
          <coding>
            <system value="http://www.ncbi.nlm.nih.gov/nuccore"/>
            <code value="NC_000006.11"/>
          </coding>
        </valueCodeableConcept>
      </component>
      <component>
        <code>
          <coding>
            <system value="http://loinc.org"/>
            <code value="53034-5"/>
            <display value="Allelic state"/>
          </coding>
        </code>
        <valueCodeableConcept>
          <coding>
            <system value="http://loinc.org"/>
            <code value="LA6706-1"/>
            <display value="heterozygous"/>
          </coding>
        </valueCodeableConcept>
      </component>
      <component>
        <code>
          <coding>
            <system value="http://loinc.org"/>
            <code value="69547-8"/>
            <display value="Genomic Ref allele"/>
          </coding>
        </code>
        <valueString value="T"/>
      </component>
      <component>
        <code>
          <coding>
            <system value="http://loinc.org"/>
            <code value="69551-0"/>
            <display value="Genomic Alt allele"/>
          </coding>
        </code>
        <valueString value="C"/>
      </component>
      <component>
        <code>
          <coding>
            <system value="http://loinc.org"/>
            <code value="tbd-coordinate system"/>
            <display value="Genomic coordinate system"/>
          </coding>
        </code>
        <valueCodeableConcept>
          <coding>
            <system value="http://hl7.org/fhir/uv/genomics-reporting/CodeSystem/genetic-coordinate-system"/>
            <code value="1"/>
          </coding>
        </valueCodeableConcept>
      </component>
      <component>
        <code>
          <coding>
            <system value="http://loinc.org"/>
            <code value="81254-5"/>
            <display value="Genomic Allele start-end"/>
          </coding>
        </code>
        <valueRange>
          <low>
            <value value="18141330"/>
          </low>
        </valueRange>
      </component>
    </Observation>
  </contained>
  <contained>
    <Observation>
      <id value="dv-5c7f9b5bd14e7"/>
      <meta>
        <profile value="http://hl7.org/fhir/uv/genomics-reporting/StructureDefinition/obs-described-variant"/>
      </meta>
      <status value="final"/>
      <category>
        <coding>
          <system value="http://terminology.hl7.org/CodeSystem/observation-category"/>
          <code value="laboratory"/>
        </coding>
      </category>
      <code>
        <coding>
          <system value="http://loinc.org"/>
          <code value="TBD-Described"/>
          <display value="Genetic variant assessment"/>
        </coding>
      </code>
      <subject>
        <reference value="Patient/NA12046"/>
      </subject>
      <issued value="2019-03-06T10:05:15+00:00"/>
      <valueCodeableConcept>
        <coding>
          <system value="http://loinc.org"/>
          <code value="LA9633-4"/>
          <display value="Present"/>
        </coding>
      </valueCodeableConcept>
      <component>
        <code>
          <coding>
            <system value="http://loinc.org"/>
            <code value="62374-4"/>
            <display value="Human reference sequence assembly version"/>
          </coding>
        </code>
        <valueCodeableConcept>
          <coding>
            <system value="http://loinc.org"/>
            <code value="LA14029-5"/>
            <display value="GRCh37"/>
          </coding>
        </valueCodeableConcept>
      </component>
      <component>
        <code>
          <coding>
            <system value="http://loinc.org"/>
            <code value="48013-7"/>
            <display value="Genomic reference sequence ID"/>
          </coding>
        </code>
        <valueCodeableConcept>
          <coding>
            <system value="http://www.ncbi.nlm.nih.gov/nuccore"/>
            <code value="NC_000006.11"/>
          </coding>
        </valueCodeableConcept>
      </component>
      <component>
        <code>
          <coding>
            <system value="http://loinc.org"/>
            <code value="53034-5"/>
            <display value="Allelic state"/>
          </coding>
        </code>
        <valueCodeableConcept>
          <coding>
            <system value="http://loinc.org"/>
            <code value="LA6705-3"/>
            <display value="homozygous"/>
          </coding>
        </valueCodeableConcept>
      </component>
      <component>
        <code>
          <coding>
            <system value="http://loinc.org"/>
            <code value="69547-8"/>
            <display value="Genomic Ref allele"/>
          </coding>
        </code>
        <valueString value="A"/>
      </component>
      <component>
        <code>
          <coding>
            <system value="http://loinc.org"/>
            <code value="69551-0"/>
            <display value="Genomic Alt allele"/>
          </coding>
        </code>
        <valueString value="G"/>
      </component>
      <component>
        <code>
          <coding>
            <system value="http://loinc.org"/>
            <code value="tbd-coordinate system"/>
            <display value="Genomic coordinate system"/>
          </coding>
        </code>
        <valueCodeableConcept>
          <coding>
            <system value="http://hl7.org/fhir/uv/genomics-reporting/CodeSystem/genetic-coordinate-system"/>
            <code value="1"/>
          </coding>
        </valueCodeableConcept>
      </component>
      <component>
        <code>
          <coding>
            <system value="http://loinc.org"/>
            <code value="81254-5"/>
            <display value="Genomic Allele start-end"/>
          </coding>
        </code>
        <valueRange>
          <low>
            <value value="18142289"/>
          </low>
        </valueRange>
      </component>
    </Observation>
  </contained>
  <contained>
    <Observation>
      <id value="dv-5c7f9b5bd1565"/>
      <meta>
        <profile value="http://hl7.org/fhir/uv/genomics-reporting/StructureDefinition/obs-described-variant"/>
      </meta>
      <status value="final"/>
      <category>
        <coding>
          <system value="http://terminology.hl7.org/CodeSystem/observation-category"/>
          <code value="laboratory"/>
        </coding>
      </category>
      <code>
        <coding>
          <system value="http://loinc.org"/>
          <code value="TBD-Described"/>
          <display value="Genetic variant assessment"/>
        </coding>
      </code>
      <subject>
        <reference value="Patient/NA12046"/>
      </subject>
      <issued value="2019-03-06T10:05:15+00:00"/>
      <valueCodeableConcept>
        <coding>
          <system value="http://loinc.org"/>
          <code value="LA9633-4"/>
          <display value="Present"/>
        </coding>
      </valueCodeableConcept>
      <component>
        <code>
          <coding>
            <system value="http://loinc.org"/>
            <code value="62374-4"/>
            <display value="Human reference sequence assembly version"/>
          </coding>
        </code>
        <valueCodeableConcept>
          <coding>
            <system value="http://loinc.org"/>
            <code value="LA14029-5"/>
            <display value="GRCh37"/>
          </coding>
        </valueCodeableConcept>
      </component>
      <component>
        <code>
          <coding>
            <system value="http://loinc.org"/>
            <code value="48013-7"/>
            <display value="Genomic reference sequence ID"/>
          </coding>
        </code>
        <valueCodeableConcept>
          <coding>
            <system value="http://www.ncbi.nlm.nih.gov/nuccore"/>
            <code value="NC_000006.11"/>
          </coding>
        </valueCodeableConcept>
      </component>
      <component>
        <code>
          <coding>
            <system value="http://loinc.org"/>
            <code value="53034-5"/>
            <display value="Allelic state"/>
          </coding>
        </code>
        <valueCodeableConcept>
          <coding>
            <system value="http://loinc.org"/>
            <code value="LA6705-3"/>
            <display value="homozygous"/>
          </coding>
        </valueCodeableConcept>
      </component>
      <component>
        <code>
          <coding>
            <system value="http://loinc.org"/>
            <code value="69547-8"/>
            <display value="Genomic Ref allele"/>
          </coding>
        </code>
        <valueString value="A"/>
      </component>
      <component>
        <code>
          <coding>
            <system value="http://loinc.org"/>
            <code value="69551-0"/>
            <display value="Genomic Alt allele"/>
          </coding>
        </code>
        <valueString value="G"/>
      </component>
      <component>
        <code>
          <coding>
            <system value="http://loinc.org"/>
            <code value="tbd-coordinate system"/>
            <display value="Genomic coordinate system"/>
          </coding>
        </code>
        <valueCodeableConcept>
          <coding>
            <system value="http://hl7.org/fhir/uv/genomics-reporting/CodeSystem/genetic-coordinate-system"/>
            <code value="1"/>
          </coding>
        </valueCodeableConcept>
      </component>
      <component>
        <code>
          <coding>
            <system value="http://loinc.org"/>
            <code value="81254-5"/>
            <display value="Genomic Allele start-end"/>
          </coding>
        </code>
        <valueRange>
          <low>
            <value value="18142308"/>
          </low>
        </valueRange>
      </component>
    </Observation>
  </contained>
  <contained>
    <Observation>
      <id value="dv-5c7f9b5bd15e3"/>
      <meta>
        <profile value="http://hl7.org/fhir/uv/genomics-reporting/StructureDefinition/obs-described-variant"/>
      </meta>
      <status value="final"/>
      <category>
        <coding>
          <system value="http://terminology.hl7.org/CodeSystem/observation-category"/>
          <code value="laboratory"/>
        </coding>
      </category>
      <code>
        <coding>
          <system value="http://loinc.org"/>
          <code value="TBD-Described"/>
          <display value="Genetic variant assessment"/>
        </coding>
      </code>
      <subject>
        <reference value="Patient/NA12046"/>
      </subject>
      <issued value="2019-03-06T10:05:15+00:00"/>
      <valueCodeableConcept>
        <coding>
          <system value="http://loinc.org"/>
          <code value="LA9633-4"/>
          <display value="Present"/>
        </coding>
      </valueCodeableConcept>
      <component>
        <code>
          <coding>
            <system value="http://loinc.org"/>
            <code value="62374-4"/>
            <display value="Human reference sequence assembly version"/>
          </coding>
        </code>
        <valueCodeableConcept>
          <coding>
            <system value="http://loinc.org"/>
            <code value="LA14029-5"/>
            <display value="GRCh37"/>
          </coding>
        </valueCodeableConcept>
      </component>
      <component>
        <code>
          <coding>
            <system value="http://loinc.org"/>
            <code value="48013-7"/>
            <display value="Genomic reference sequence ID"/>
          </coding>
        </code>
        <valueCodeableConcept>
          <coding>
            <system value="http://www.ncbi.nlm.nih.gov/nuccore"/>
            <code value="NC_000006.11"/>
          </coding>
        </valueCodeableConcept>
      </component>
      <component>
        <code>
          <coding>
            <system value="http://loinc.org"/>
            <code value="53034-5"/>
            <display value="Allelic state"/>
          </coding>
        </code>
        <valueCodeableConcept>
          <coding>
            <system value="http://loinc.org"/>
            <code value="LA6705-3"/>
            <display value="homozygous"/>
          </coding>
        </valueCodeableConcept>
      </component>
      <component>
        <code>
          <coding>
            <system value="http://loinc.org"/>
            <code value="69547-8"/>
            <display value="Genomic Ref allele"/>
          </coding>
        </code>
        <valueString value="A"/>
      </component>
      <component>
        <code>
          <coding>
            <system value="http://loinc.org"/>
            <code value="69551-0"/>
            <display value="Genomic Alt allele"/>
          </coding>
        </code>
        <valueString value="C"/>
      </component>
      <component>
        <code>
          <coding>
            <system value="http://loinc.org"/>
            <code value="tbd-coordinate system"/>
            <display value="Genomic coordinate system"/>
          </coding>
        </code>
        <valueCodeableConcept>
          <coding>
            <system value="http://hl7.org/fhir/uv/genomics-reporting/CodeSystem/genetic-coordinate-system"/>
            <code value="1"/>
          </coding>
        </valueCodeableConcept>
      </component>
      <component>
        <code>
          <coding>
            <system value="http://loinc.org"/>
            <code value="81254-5"/>
            <display value="Genomic Allele start-end"/>
          </coding>
        </code>
        <valueRange>
          <low>
            <value value="18142422"/>
          </low>
        </valueRange>
      </component>
    </Observation>
  </contained>
  <contained>
    <Observation>
      <id value="dv-5c7f9b5bd1661"/>
      <meta>
        <profile value="http://hl7.org/fhir/uv/genomics-reporting/StructureDefinition/obs-described-variant"/>
      </meta>
      <status value="final"/>
      <category>
        <coding>
          <system value="http://terminology.hl7.org/CodeSystem/observation-category"/>
          <code value="laboratory"/>
        </coding>
      </category>
      <code>
        <coding>
          <system value="http://loinc.org"/>
          <code value="TBD-Described"/>
          <display value="Genetic variant assessment"/>
        </coding>
      </code>
      <subject>
        <reference value="Patient/NA12046"/>
      </subject>
      <issued value="2019-03-06T10:05:15+00:00"/>
      <valueCodeableConcept>
        <coding>
          <system value="http://loinc.org"/>
          <code value="LA9633-4"/>
          <display value="Present"/>
        </coding>
      </valueCodeableConcept>
      <component>
        <code>
          <coding>
            <system value="http://loinc.org"/>
            <code value="62374-4"/>
            <display value="Human reference sequence assembly version"/>
          </coding>
        </code>
        <valueCodeableConcept>
          <coding>
            <system value="http://loinc.org"/>
            <code value="LA14029-5"/>
            <display value="GRCh37"/>
          </coding>
        </valueCodeableConcept>
      </component>
      <component>
        <code>
          <coding>
            <system value="http://loinc.org"/>
            <code value="48013-7"/>
            <display value="Genomic reference sequence ID"/>
          </coding>
        </code>
        <valueCodeableConcept>
          <coding>
            <system value="http://www.ncbi.nlm.nih.gov/nuccore"/>
            <code value="NC_000006.11"/>
          </coding>
        </valueCodeableConcept>
      </component>
      <component>
        <code>
          <coding>
            <system value="http://loinc.org"/>
            <code value="53034-5"/>
            <display value="Allelic state"/>
          </coding>
        </code>
        <valueCodeableConcept>
          <coding>
            <system value="http://loinc.org"/>
            <code value="LA6706-1"/>
            <display value="heterozygous"/>
          </coding>
        </valueCodeableConcept>
      </component>
      <component>
        <code>
          <coding>
            <system value="http://loinc.org"/>
            <code value="69547-8"/>
            <display value="Genomic Ref allele"/>
          </coding>
        </code>
        <valueString value="T"/>
      </component>
      <component>
        <code>
          <coding>
            <system value="http://loinc.org"/>
            <code value="69551-0"/>
            <display value="Genomic Alt allele"/>
          </coding>
        </code>
        <valueString value="A"/>
      </component>
      <component>
        <code>
          <coding>
            <system value="http://loinc.org"/>
            <code value="tbd-coordinate system"/>
            <display value="Genomic coordinate system"/>
          </coding>
        </code>
        <valueCodeableConcept>
          <coding>
            <system value="http://hl7.org/fhir/uv/genomics-reporting/CodeSystem/genetic-coordinate-system"/>
            <code value="1"/>
          </coding>
        </valueCodeableConcept>
      </component>
      <component>
        <code>
          <coding>
            <system value="http://loinc.org"/>
            <code value="81254-5"/>
            <display value="Genomic Allele start-end"/>
          </coding>
        </code>
        <valueRange>
          <low>
            <value value="18142970"/>
          </low>
        </valueRange>
      </component>
    </Observation>
  </contained>
  <contained>
    <Observation>
      <id value="dv-5c7f9b5bd16de"/>
      <meta>
        <profile value="http://hl7.org/fhir/uv/genomics-reporting/StructureDefinition/obs-described-variant"/>
      </meta>
      <status value="final"/>
      <category>
        <coding>
          <system value="http://terminology.hl7.org/CodeSystem/observation-category"/>
          <code value="laboratory"/>
        </coding>
      </category>
      <code>
        <coding>
          <system value="http://loinc.org"/>
          <code value="TBD-Described"/>
          <display value="Genetic variant assessment"/>
        </coding>
      </code>
      <subject>
        <reference value="Patient/NA12046"/>
      </subject>
      <issued value="2019-03-06T10:05:15+00:00"/>
      <valueCodeableConcept>
        <coding>
          <system value="http://loinc.org"/>
          <code value="LA9633-4"/>
          <display value="Present"/>
        </coding>
      </valueCodeableConcept>
      <component>
        <code>
          <coding>
            <system value="http://loinc.org"/>
            <code value="62374-4"/>
            <display value="Human reference sequence assembly version"/>
          </coding>
        </code>
        <valueCodeableConcept>
          <coding>
            <system value="http://loinc.org"/>
            <code value="LA14029-5"/>
            <display value="GRCh37"/>
          </coding>
        </valueCodeableConcept>
      </component>
      <component>
        <code>
          <coding>
            <system value="http://loinc.org"/>
            <code value="48013-7"/>
            <display value="Genomic reference sequence ID"/>
          </coding>
        </code>
        <valueCodeableConcept>
          <coding>
            <system value="http://www.ncbi.nlm.nih.gov/nuccore"/>
            <code value="NC_000006.11"/>
          </coding>
        </valueCodeableConcept>
      </component>
      <component>
        <code>
          <coding>
            <system value="http://loinc.org"/>
            <code value="53034-5"/>
            <display value="Allelic state"/>
          </coding>
        </code>
        <valueCodeableConcept>
          <coding>
            <system value="http://loinc.org"/>
            <code value="LA6705-3"/>
            <display value="homozygous"/>
          </coding>
        </valueCodeableConcept>
      </component>
      <component>
        <code>
          <coding>
            <system value="http://loinc.org"/>
            <code value="69547-8"/>
            <display value="Genomic Ref allele"/>
          </coding>
        </code>
        <valueString value="A"/>
      </component>
      <component>
        <code>
          <coding>
            <system value="http://loinc.org"/>
            <code value="69551-0"/>
            <display value="Genomic Alt allele"/>
          </coding>
        </code>
        <valueString value="G"/>
      </component>
      <component>
        <code>
          <coding>
            <system value="http://loinc.org"/>
            <code value="tbd-coordinate system"/>
            <display value="Genomic coordinate system"/>
          </coding>
        </code>
        <valueCodeableConcept>
          <coding>
            <system value="http://hl7.org/fhir/uv/genomics-reporting/CodeSystem/genetic-coordinate-system"/>
            <code value="1"/>
          </coding>
        </valueCodeableConcept>
      </component>
      <component>
        <code>
          <coding>
            <system value="http://loinc.org"/>
            <code value="81254-5"/>
            <display value="Genomic Allele start-end"/>
          </coding>
        </code>
        <valueRange>
          <low>
            <value value="18143769"/>
          </low>
        </valueRange>
      </component>
    </Observation>
  </contained>
  <contained>
    <Observation>
      <id value="dv-5c7f9b5bd175d"/>
      <meta>
        <profile value="http://hl7.org/fhir/uv/genomics-reporting/StructureDefinition/obs-described-variant"/>
      </meta>
      <status value="final"/>
      <category>
        <coding>
          <system value="http://terminology.hl7.org/CodeSystem/observation-category"/>
          <code value="laboratory"/>
        </coding>
      </category>
      <code>
        <coding>
          <system value="http://loinc.org"/>
          <code value="TBD-Described"/>
          <display value="Genetic variant assessment"/>
        </coding>
      </code>
      <subject>
        <reference value="Patient/NA12046"/>
      </subject>
      <issued value="2019-03-06T10:05:15+00:00"/>
      <valueCodeableConcept>
        <coding>
          <system value="http://loinc.org"/>
          <code value="LA9633-4"/>
          <display value="Present"/>
        </coding>
      </valueCodeableConcept>
      <component>
        <code>
          <coding>
            <system value="http://loinc.org"/>
            <code value="62374-4"/>
            <display value="Human reference sequence assembly version"/>
          </coding>
        </code>
        <valueCodeableConcept>
          <coding>
            <system value="http://loinc.org"/>
            <code value="LA14029-5"/>
            <display value="GRCh37"/>
          </coding>
        </valueCodeableConcept>
      </component>
      <component>
        <code>
          <coding>
            <system value="http://loinc.org"/>
            <code value="48013-7"/>
            <display value="Genomic reference sequence ID"/>
          </coding>
        </code>
        <valueCodeableConcept>
          <coding>
            <system value="http://www.ncbi.nlm.nih.gov/nuccore"/>
            <code value="NC_000006.11"/>
          </coding>
        </valueCodeableConcept>
      </component>
      <component>
        <code>
          <coding>
            <system value="http://loinc.org"/>
            <code value="53034-5"/>
            <display value="Allelic state"/>
          </coding>
        </code>
        <valueCodeableConcept>
          <coding>
            <system value="http://loinc.org"/>
            <code value="LA6706-1"/>
            <display value="heterozygous"/>
          </coding>
        </valueCodeableConcept>
      </component>
      <component>
        <code>
          <coding>
            <system value="http://loinc.org"/>
            <code value="69547-8"/>
            <display value="Genomic Ref allele"/>
          </coding>
        </code>
        <valueString value="G"/>
      </component>
      <component>
        <code>
          <coding>
            <system value="http://loinc.org"/>
            <code value="69551-0"/>
            <display value="Genomic Alt allele"/>
          </coding>
        </code>
        <valueString value="T"/>
      </component>
      <component>
        <code>
          <coding>
            <system value="http://loinc.org"/>
            <code value="tbd-coordinate system"/>
            <display value="Genomic coordinate system"/>
          </coding>
        </code>
        <valueCodeableConcept>
          <coding>
            <system value="http://hl7.org/fhir/uv/genomics-reporting/CodeSystem/genetic-coordinate-system"/>
            <code value="1"/>
          </coding>
        </valueCodeableConcept>
      </component>
      <component>
        <code>
          <coding>
            <system value="http://loinc.org"/>
            <code value="81254-5"/>
            <display value="Genomic Allele start-end"/>
          </coding>
        </code>
        <valueRange>
          <low>
            <value value="18144794"/>
          </low>
        </valueRange>
      </component>
    </Observation>
  </contained>
  <contained>
    <Observation>
      <id value="dv-5c7f9b5bd17da"/>
      <meta>
        <profile value="http://hl7.org/fhir/uv/genomics-reporting/StructureDefinition/obs-described-variant"/>
      </meta>
      <status value="final"/>
      <category>
        <coding>
          <system value="http://terminology.hl7.org/CodeSystem/observation-category"/>
          <code value="laboratory"/>
        </coding>
      </category>
      <code>
        <coding>
          <system value="http://loinc.org"/>
          <code value="TBD-Described"/>
          <display value="Genetic variant assessment"/>
        </coding>
      </code>
      <subject>
        <reference value="Patient/NA12046"/>
      </subject>
      <issued value="2019-03-06T10:05:15+00:00"/>
      <valueCodeableConcept>
        <coding>
          <system value="http://loinc.org"/>
          <code value="LA9633-4"/>
          <display value="Present"/>
        </coding>
      </valueCodeableConcept>
      <component>
        <code>
          <coding>
            <system value="http://loinc.org"/>
            <code value="62374-4"/>
            <display value="Human reference sequence assembly version"/>
          </coding>
        </code>
        <valueCodeableConcept>
          <coding>
            <system value="http://loinc.org"/>
            <code value="LA14029-5"/>
            <display value="GRCh37"/>
          </coding>
        </valueCodeableConcept>
      </component>
      <component>
        <code>
          <coding>
            <system value="http://loinc.org"/>
            <code value="48013-7"/>
            <display value="Genomic reference sequence ID"/>
          </coding>
        </code>
        <valueCodeableConcept>
          <coding>
            <system value="http://www.ncbi.nlm.nih.gov/nuccore"/>
            <code value="NC_000006.11"/>
          </coding>
        </valueCodeableConcept>
      </component>
      <component>
        <code>
          <coding>
            <system value="http://loinc.org"/>
            <code value="53034-5"/>
            <display value="Allelic state"/>
          </coding>
        </code>
        <valueCodeableConcept>
          <coding>
            <system value="http://loinc.org"/>
            <code value="LA6706-1"/>
            <display value="heterozygous"/>
          </coding>
        </valueCodeableConcept>
      </component>
      <component>
        <code>
          <coding>
            <system value="http://loinc.org"/>
            <code value="69547-8"/>
            <display value="Genomic Ref allele"/>
          </coding>
        </code>
        <valueString value="G"/>
      </component>
      <component>
        <code>
          <coding>
            <system value="http://loinc.org"/>
            <code value="69551-0"/>
            <display value="Genomic Alt allele"/>
          </coding>
        </code>
        <valueString value="A"/>
      </component>
      <component>
        <code>
          <coding>
            <system value="http://loinc.org"/>
            <code value="tbd-coordinate system"/>
            <display value="Genomic coordinate system"/>
          </coding>
        </code>
        <valueCodeableConcept>
          <coding>
            <system value="http://hl7.org/fhir/uv/genomics-reporting/CodeSystem/genetic-coordinate-system"/>
            <code value="1"/>
          </coding>
        </valueCodeableConcept>
      </component>
      <component>
        <code>
          <coding>
            <system value="http://loinc.org"/>
            <code value="81254-5"/>
            <display value="Genomic Allele start-end"/>
          </coding>
        </code>
        <valueRange>
          <low>
            <value value="18144892"/>
          </low>
        </valueRange>
      </component>
    </Observation>
  </contained>
  <contained>
    <Observation>
      <id value="dv-5c7f9b5bd1858"/>
      <meta>
        <profile value="http://hl7.org/fhir/uv/genomics-reporting/StructureDefinition/obs-described-variant"/>
      </meta>
      <status value="final"/>
      <category>
        <coding>
          <system value="http://terminology.hl7.org/CodeSystem/observation-category"/>
          <code value="laboratory"/>
        </coding>
      </category>
      <code>
        <coding>
          <system value="http://loinc.org"/>
          <code value="TBD-Described"/>
          <display value="Genetic variant assessment"/>
        </coding>
      </code>
      <subject>
        <reference value="Patient/NA12046"/>
      </subject>
      <issued value="2019-03-06T10:05:15+00:00"/>
      <valueCodeableConcept>
        <coding>
          <system value="http://loinc.org"/>
          <code value="LA9633-4"/>
          <display value="Present"/>
        </coding>
      </valueCodeableConcept>
      <component>
        <code>
          <coding>
            <system value="http://loinc.org"/>
            <code value="62374-4"/>
            <display value="Human reference sequence assembly version"/>
          </coding>
        </code>
        <valueCodeableConcept>
          <coding>
            <system value="http://loinc.org"/>
            <code value="LA14029-5"/>
            <display value="GRCh37"/>
          </coding>
        </valueCodeableConcept>
      </component>
      <component>
        <code>
          <coding>
            <system value="http://loinc.org"/>
            <code value="48013-7"/>
            <display value="Genomic reference sequence ID"/>
          </coding>
        </code>
        <valueCodeableConcept>
          <coding>
            <system value="http://www.ncbi.nlm.nih.gov/nuccore"/>
            <code value="NC_000006.11"/>
          </coding>
        </valueCodeableConcept>
      </component>
      <component>
        <code>
          <coding>
            <system value="http://loinc.org"/>
            <code value="53034-5"/>
            <display value="Allelic state"/>
          </coding>
        </code>
        <valueCodeableConcept>
          <coding>
            <system value="http://loinc.org"/>
            <code value="LA6706-1"/>
            <display value="heterozygous"/>
          </coding>
        </valueCodeableConcept>
      </component>
      <component>
        <code>
          <coding>
            <system value="http://loinc.org"/>
            <code value="69547-8"/>
            <display value="Genomic Ref allele"/>
          </coding>
        </code>
        <valueString value="AT"/>
      </component>
      <component>
        <code>
          <coding>
            <system value="http://loinc.org"/>
            <code value="69551-0"/>
            <display value="Genomic Alt allele"/>
          </coding>
        </code>
        <valueString value="TT"/>
      </component>
      <component>
        <code>
          <coding>
            <system value="http://loinc.org"/>
            <code value="tbd-coordinate system"/>
            <display value="Genomic coordinate system"/>
          </coding>
        </code>
        <valueCodeableConcept>
          <coding>
            <system value="http://hl7.org/fhir/uv/genomics-reporting/CodeSystem/genetic-coordinate-system"/>
            <code value="1"/>
          </coding>
        </valueCodeableConcept>
      </component>
      <component>
        <code>
          <coding>
            <system value="http://loinc.org"/>
            <code value="81254-5"/>
            <display value="Genomic Allele start-end"/>
          </coding>
        </code>
        <valueRange>
          <low>
            <value value="18144959"/>
          </low>
        </valueRange>
      </component>
    </Observation>
  </contained>
  <contained>
    <Observation>
      <id value="dv-5c7f9b5bd18d6"/>
      <meta>
        <profile value="http://hl7.org/fhir/uv/genomics-reporting/StructureDefinition/obs-described-variant"/>
      </meta>
      <status value="final"/>
      <category>
        <coding>
          <system value="http://terminology.hl7.org/CodeSystem/observation-category"/>
          <code value="laboratory"/>
        </coding>
      </category>
      <code>
        <coding>
          <system value="http://loinc.org"/>
          <code value="TBD-Described"/>
          <display value="Genetic variant assessment"/>
        </coding>
      </code>
      <subject>
        <reference value="Patient/NA12046"/>
      </subject>
      <issued value="2019-03-06T10:05:15+00:00"/>
      <valueCodeableConcept>
        <coding>
          <system value="http://loinc.org"/>
          <code value="LA9633-4"/>
          <display value="Present"/>
        </coding>
      </valueCodeableConcept>
      <component>
        <code>
          <coding>
            <system value="http://loinc.org"/>
            <code value="62374-4"/>
            <display value="Human reference sequence assembly version"/>
          </coding>
        </code>
        <valueCodeableConcept>
          <coding>
            <system value="http://loinc.org"/>
            <code value="LA14029-5"/>
            <display value="GRCh37"/>
          </coding>
        </valueCodeableConcept>
      </component>
      <component>
        <code>
          <coding>
            <system value="http://loinc.org"/>
            <code value="48013-7"/>
            <display value="Genomic reference sequence ID"/>
          </coding>
        </code>
        <valueCodeableConcept>
          <coding>
            <system value="http://www.ncbi.nlm.nih.gov/nuccore"/>
            <code value="NC_000006.11"/>
          </coding>
        </valueCodeableConcept>
      </component>
      <component>
        <code>
          <coding>
            <system value="http://loinc.org"/>
            <code value="53034-5"/>
            <display value="Allelic state"/>
          </coding>
        </code>
        <valueCodeableConcept>
          <coding>
            <system value="http://loinc.org"/>
            <code value="LA6705-3"/>
            <display value="homozygous"/>
          </coding>
        </valueCodeableConcept>
      </component>
      <component>
        <code>
          <coding>
            <system value="http://loinc.org"/>
            <code value="69547-8"/>
            <display value="Genomic Ref allele"/>
          </coding>
        </code>
        <valueString value="A"/>
      </component>
      <component>
        <code>
          <coding>
            <system value="http://loinc.org"/>
            <code value="69551-0"/>
            <display value="Genomic Alt allele"/>
          </coding>
        </code>
        <valueString value="T"/>
      </component>
      <component>
        <code>
          <coding>
            <system value="http://loinc.org"/>
            <code value="tbd-coordinate system"/>
            <display value="Genomic coordinate system"/>
          </coding>
        </code>
        <valueCodeableConcept>
          <coding>
            <system value="http://hl7.org/fhir/uv/genomics-reporting/CodeSystem/genetic-coordinate-system"/>
            <code value="1"/>
          </coding>
        </valueCodeableConcept>
      </component>
      <component>
        <code>
          <coding>
            <system value="http://loinc.org"/>
            <code value="81254-5"/>
            <display value="Genomic Allele start-end"/>
          </coding>
        </code>
        <valueRange>
          <low>
            <value value="18145372"/>
          </low>
        </valueRange>
      </component>
    </Observation>
  </contained>
  <contained>
    <Observation>
      <id value="dv-5c7f9b5bd1954"/>
      <meta>
        <profile value="http://hl7.org/fhir/uv/genomics-reporting/StructureDefinition/obs-described-variant"/>
      </meta>
      <status value="final"/>
      <category>
        <coding>
          <system value="http://terminology.hl7.org/CodeSystem/observation-category"/>
          <code value="laboratory"/>
        </coding>
      </category>
      <code>
        <coding>
          <system value="http://loinc.org"/>
          <code value="TBD-Described"/>
          <display value="Genetic variant assessment"/>
        </coding>
      </code>
      <subject>
        <reference value="Patient/NA12046"/>
      </subject>
      <issued value="2019-03-06T10:05:15+00:00"/>
      <valueCodeableConcept>
        <coding>
          <system value="http://loinc.org"/>
          <code value="LA9633-4"/>
          <display value="Present"/>
        </coding>
      </valueCodeableConcept>
      <component>
        <code>
          <coding>
            <system value="http://loinc.org"/>
            <code value="62374-4"/>
            <display value="Human reference sequence assembly version"/>
          </coding>
        </code>
        <valueCodeableConcept>
          <coding>
            <system value="http://loinc.org"/>
            <code value="LA14029-5"/>
            <display value="GRCh37"/>
          </coding>
        </valueCodeableConcept>
      </component>
      <component>
        <code>
          <coding>
            <system value="http://loinc.org"/>
            <code value="48013-7"/>
            <display value="Genomic reference sequence ID"/>
          </coding>
        </code>
        <valueCodeableConcept>
          <coding>
            <system value="http://www.ncbi.nlm.nih.gov/nuccore"/>
            <code value="NC_000006.11"/>
          </coding>
        </valueCodeableConcept>
      </component>
      <component>
        <code>
          <coding>
            <system value="http://loinc.org"/>
            <code value="53034-5"/>
            <display value="Allelic state"/>
          </coding>
        </code>
        <valueCodeableConcept>
          <coding>
            <system value="http://loinc.org"/>
            <code value="LA6705-3"/>
            <display value="homozygous"/>
          </coding>
        </valueCodeableConcept>
      </component>
      <component>
        <code>
          <coding>
            <system value="http://loinc.org"/>
            <code value="69547-8"/>
            <display value="Genomic Ref allele"/>
          </coding>
        </code>
        <valueString value="A"/>
      </component>
      <component>
        <code>
          <coding>
            <system value="http://loinc.org"/>
            <code value="69551-0"/>
            <display value="Genomic Alt allele"/>
          </coding>
        </code>
        <valueString value="C"/>
      </component>
      <component>
        <code>
          <coding>
            <system value="http://loinc.org"/>
            <code value="tbd-coordinate system"/>
            <display value="Genomic coordinate system"/>
          </coding>
        </code>
        <valueCodeableConcept>
          <coding>
            <system value="http://hl7.org/fhir/uv/genomics-reporting/CodeSystem/genetic-coordinate-system"/>
            <code value="1"/>
          </coding>
        </valueCodeableConcept>
      </component>
      <component>
        <code>
          <coding>
            <system value="http://loinc.org"/>
            <code value="81254-5"/>
            <display value="Genomic Allele start-end"/>
          </coding>
        </code>
        <valueRange>
          <low>
            <value value="18147186"/>
          </low>
        </valueRange>
      </component>
    </Observation>
  </contained>
  <contained>
    <Observation>
      <id value="dv-5c7f9b5bd19d1"/>
      <meta>
        <profile value="http://hl7.org/fhir/uv/genomics-reporting/StructureDefinition/obs-described-variant"/>
      </meta>
      <status value="final"/>
      <category>
        <coding>
          <system value="http://terminology.hl7.org/CodeSystem/observation-category"/>
          <code value="laboratory"/>
        </coding>
      </category>
      <code>
        <coding>
          <system value="http://loinc.org"/>
          <code value="TBD-Described"/>
          <display value="Genetic variant assessment"/>
        </coding>
      </code>
      <subject>
        <reference value="Patient/NA12046"/>
      </subject>
      <issued value="2019-03-06T10:05:15+00:00"/>
      <valueCodeableConcept>
        <coding>
          <system value="http://loinc.org"/>
          <code value="LA9633-4"/>
          <display value="Present"/>
        </coding>
      </valueCodeableConcept>
      <component>
        <code>
          <coding>
            <system value="http://loinc.org"/>
            <code value="62374-4"/>
            <display value="Human reference sequence assembly version"/>
          </coding>
        </code>
        <valueCodeableConcept>
          <coding>
            <system value="http://loinc.org"/>
            <code value="LA14029-5"/>
            <display value="GRCh37"/>
          </coding>
        </valueCodeableConcept>
      </component>
      <component>
        <code>
          <coding>
            <system value="http://loinc.org"/>
            <code value="48013-7"/>
            <display value="Genomic reference sequence ID"/>
          </coding>
        </code>
        <valueCodeableConcept>
          <coding>
            <system value="http://www.ncbi.nlm.nih.gov/nuccore"/>
            <code value="NC_000006.11"/>
          </coding>
        </valueCodeableConcept>
      </component>
      <component>
        <code>
          <coding>
            <system value="http://loinc.org"/>
            <code value="53034-5"/>
            <display value="Allelic state"/>
          </coding>
        </code>
        <valueCodeableConcept>
          <coding>
            <system value="http://loinc.org"/>
            <code value="LA6706-1"/>
            <display value="heterozygous"/>
          </coding>
        </valueCodeableConcept>
      </component>
      <component>
        <code>
          <coding>
            <system value="http://loinc.org"/>
            <code value="69547-8"/>
            <display value="Genomic Ref allele"/>
          </coding>
        </code>
        <valueString value="G"/>
      </component>
      <component>
        <code>
          <coding>
            <system value="http://loinc.org"/>
            <code value="69551-0"/>
            <display value="Genomic Alt allele"/>
          </coding>
        </code>
        <valueString value="A"/>
      </component>
      <component>
        <code>
          <coding>
            <system value="http://loinc.org"/>
            <code value="tbd-coordinate system"/>
            <display value="Genomic coordinate system"/>
          </coding>
        </code>
        <valueCodeableConcept>
          <coding>
            <system value="http://hl7.org/fhir/uv/genomics-reporting/CodeSystem/genetic-coordinate-system"/>
            <code value="1"/>
          </coding>
        </valueCodeableConcept>
      </component>
      <component>
        <code>
          <coding>
            <system value="http://loinc.org"/>
            <code value="81254-5"/>
            <display value="Genomic Allele start-end"/>
          </coding>
        </code>
        <valueRange>
          <low>
            <value value="18147780"/>
          </low>
        </valueRange>
      </component>
    </Observation>
  </contained>
  <contained>
    <Observation>
      <id value="dv-5c7f9b5bd1a4f"/>
      <meta>
        <profile value="http://hl7.org/fhir/uv/genomics-reporting/StructureDefinition/obs-described-variant"/>
      </meta>
      <status value="final"/>
      <category>
        <coding>
          <system value="http://terminology.hl7.org/CodeSystem/observation-category"/>
          <code value="laboratory"/>
        </coding>
      </category>
      <code>
        <coding>
          <system value="http://loinc.org"/>
          <code value="TBD-Described"/>
          <display value="Genetic variant assessment"/>
        </coding>
      </code>
      <subject>
        <reference value="Patient/NA12046"/>
      </subject>
      <issued value="2019-03-06T10:05:15+00:00"/>
      <valueCodeableConcept>
        <coding>
          <system value="http://loinc.org"/>
          <code value="LA9633-4"/>
          <display value="Present"/>
        </coding>
      </valueCodeableConcept>
      <component>
        <code>
          <coding>
            <system value="http://loinc.org"/>
            <code value="62374-4"/>
            <display value="Human reference sequence assembly version"/>
          </coding>
        </code>
        <valueCodeableConcept>
          <coding>
            <system value="http://loinc.org"/>
            <code value="LA14029-5"/>
            <display value="GRCh37"/>
          </coding>
        </valueCodeableConcept>
      </component>
      <component>
        <code>
          <coding>
            <system value="http://loinc.org"/>
            <code value="48013-7"/>
            <display value="Genomic reference sequence ID"/>
          </coding>
        </code>
        <valueCodeableConcept>
          <coding>
            <system value="http://www.ncbi.nlm.nih.gov/nuccore"/>
            <code value="NC_000006.11"/>
          </coding>
        </valueCodeableConcept>
      </component>
      <component>
        <code>
          <coding>
            <system value="http://loinc.org"/>
            <code value="53034-5"/>
            <display value="Allelic state"/>
          </coding>
        </code>
        <valueCodeableConcept>
          <coding>
            <system value="http://loinc.org"/>
            <code value="LA6705-3"/>
            <display value="homozygous"/>
          </coding>
        </valueCodeableConcept>
      </component>
      <component>
        <code>
          <coding>
            <system value="http://loinc.org"/>
            <code value="69547-8"/>
            <display value="Genomic Ref allele"/>
          </coding>
        </code>
        <valueString value="G"/>
      </component>
      <component>
        <code>
          <coding>
            <system value="http://loinc.org"/>
            <code value="69551-0"/>
            <display value="Genomic Alt allele"/>
          </coding>
        </code>
        <valueString value="A"/>
      </component>
      <component>
        <code>
          <coding>
            <system value="http://loinc.org"/>
            <code value="tbd-coordinate system"/>
            <display value="Genomic coordinate system"/>
          </coding>
        </code>
        <valueCodeableConcept>
          <coding>
            <system value="http://hl7.org/fhir/uv/genomics-reporting/CodeSystem/genetic-coordinate-system"/>
            <code value="1"/>
          </coding>
        </valueCodeableConcept>
      </component>
      <component>
        <code>
          <coding>
            <system value="http://loinc.org"/>
            <code value="81254-5"/>
            <display value="Genomic Allele start-end"/>
          </coding>
        </code>
        <valueRange>
          <low>
            <value value="18148019"/>
          </low>
        </valueRange>
      </component>
    </Observation>
  </contained>
  <contained>
    <Observation>
      <id value="dv-5c7f9b5bd1acd"/>
      <meta>
        <profile value="http://hl7.org/fhir/uv/genomics-reporting/StructureDefinition/obs-described-variant"/>
      </meta>
      <status value="final"/>
      <category>
        <coding>
          <system value="http://terminology.hl7.org/CodeSystem/observation-category"/>
          <code value="laboratory"/>
        </coding>
      </category>
      <code>
        <coding>
          <system value="http://loinc.org"/>
          <code value="TBD-Described"/>
          <display value="Genetic variant assessment"/>
        </coding>
      </code>
      <subject>
        <reference value="Patient/NA12046"/>
      </subject>
      <issued value="2019-03-06T10:05:15+00:00"/>
      <valueCodeableConcept>
        <coding>
          <system value="http://loinc.org"/>
          <code value="LA9633-4"/>
          <display value="Present"/>
        </coding>
      </valueCodeableConcept>
      <component>
        <code>
          <coding>
            <system value="http://loinc.org"/>
            <code value="62374-4"/>
            <display value="Human reference sequence assembly version"/>
          </coding>
        </code>
        <valueCodeableConcept>
          <coding>
            <system value="http://loinc.org"/>
            <code value="LA14029-5"/>
            <display value="GRCh37"/>
          </coding>
        </valueCodeableConcept>
      </component>
      <component>
        <code>
          <coding>
            <system value="http://loinc.org"/>
            <code value="48013-7"/>
            <display value="Genomic reference sequence ID"/>
          </coding>
        </code>
        <valueCodeableConcept>
          <coding>
            <system value="http://www.ncbi.nlm.nih.gov/nuccore"/>
            <code value="NC_000006.11"/>
          </coding>
        </valueCodeableConcept>
      </component>
      <component>
        <code>
          <coding>
            <system value="http://loinc.org"/>
            <code value="53034-5"/>
            <display value="Allelic state"/>
          </coding>
        </code>
        <valueCodeableConcept>
          <coding>
            <system value="http://loinc.org"/>
            <code value="LA6705-3"/>
            <display value="homozygous"/>
          </coding>
        </valueCodeableConcept>
      </component>
      <component>
        <code>
          <coding>
            <system value="http://loinc.org"/>
            <code value="69547-8"/>
            <display value="Genomic Ref allele"/>
          </coding>
        </code>
        <valueString value="T"/>
      </component>
      <component>
        <code>
          <coding>
            <system value="http://loinc.org"/>
            <code value="69551-0"/>
            <display value="Genomic Alt allele"/>
          </coding>
        </code>
        <valueString value="A"/>
      </component>
      <component>
        <code>
          <coding>
            <system value="http://loinc.org"/>
            <code value="tbd-coordinate system"/>
            <display value="Genomic coordinate system"/>
          </coding>
        </code>
        <valueCodeableConcept>
          <coding>
            <system value="http://hl7.org/fhir/uv/genomics-reporting/CodeSystem/genetic-coordinate-system"/>
            <code value="1"/>
          </coding>
        </valueCodeableConcept>
      </component>
      <component>
        <code>
          <coding>
            <system value="http://loinc.org"/>
            <code value="81254-5"/>
            <display value="Genomic Allele start-end"/>
          </coding>
        </code>
        <valueRange>
          <low>
            <value value="18148247"/>
          </low>
        </valueRange>
      </component>
    </Observation>
  </contained>
  <contained>
    <Observation>
      <id value="dv-5c7f9b5bd1b4b"/>
      <meta>
        <profile value="http://hl7.org/fhir/uv/genomics-reporting/StructureDefinition/obs-described-variant"/>
      </meta>
      <status value="final"/>
      <category>
        <coding>
          <system value="http://terminology.hl7.org/CodeSystem/observation-category"/>
          <code value="laboratory"/>
        </coding>
      </category>
      <code>
        <coding>
          <system value="http://loinc.org"/>
          <code value="TBD-Described"/>
          <display value="Genetic variant assessment"/>
        </coding>
      </code>
      <subject>
        <reference value="Patient/NA12046"/>
      </subject>
      <issued value="2019-03-06T10:05:15+00:00"/>
      <valueCodeableConcept>
        <coding>
          <system value="http://loinc.org"/>
          <code value="LA9633-4"/>
          <display value="Present"/>
        </coding>
      </valueCodeableConcept>
      <component>
        <code>
          <coding>
            <system value="http://loinc.org"/>
            <code value="62374-4"/>
            <display value="Human reference sequence assembly version"/>
          </coding>
        </code>
        <valueCodeableConcept>
          <coding>
            <system value="http://loinc.org"/>
            <code value="LA14029-5"/>
            <display value="GRCh37"/>
          </coding>
        </valueCodeableConcept>
      </component>
      <component>
        <code>
          <coding>
            <system value="http://loinc.org"/>
            <code value="48013-7"/>
            <display value="Genomic reference sequence ID"/>
          </coding>
        </code>
        <valueCodeableConcept>
          <coding>
            <system value="http://www.ncbi.nlm.nih.gov/nuccore"/>
            <code value="NC_000006.11"/>
          </coding>
        </valueCodeableConcept>
      </component>
      <component>
        <code>
          <coding>
            <system value="http://loinc.org"/>
            <code value="53034-5"/>
            <display value="Allelic state"/>
          </coding>
        </code>
        <valueCodeableConcept>
          <coding>
            <system value="http://loinc.org"/>
            <code value="LA6705-3"/>
            <display value="homozygous"/>
          </coding>
        </valueCodeableConcept>
      </component>
      <component>
        <code>
          <coding>
            <system value="http://loinc.org"/>
            <code value="69547-8"/>
            <display value="Genomic Ref allele"/>
          </coding>
        </code>
        <valueString value="G"/>
      </component>
      <component>
        <code>
          <coding>
            <system value="http://loinc.org"/>
            <code value="69551-0"/>
            <display value="Genomic Alt allele"/>
          </coding>
        </code>
        <valueString value="A"/>
      </component>
      <component>
        <code>
          <coding>
            <system value="http://loinc.org"/>
            <code value="tbd-coordinate system"/>
            <display value="Genomic coordinate system"/>
          </coding>
        </code>
        <valueCodeableConcept>
          <coding>
            <system value="http://hl7.org/fhir/uv/genomics-reporting/CodeSystem/genetic-coordinate-system"/>
            <code value="1"/>
          </coding>
        </valueCodeableConcept>
      </component>
      <component>
        <code>
          <coding>
            <system value="http://loinc.org"/>
            <code value="81254-5"/>
            <display value="Genomic Allele start-end"/>
          </coding>
        </code>
        <valueRange>
          <low>
            <value value="18148513"/>
          </low>
        </valueRange>
      </component>
    </Observation>
  </contained>
  <contained>
    <Observation>
      <id value="dv-5c7f9b5bd1bc8"/>
      <meta>
        <profile value="http://hl7.org/fhir/uv/genomics-reporting/StructureDefinition/obs-described-variant"/>
      </meta>
      <status value="final"/>
      <category>
        <coding>
          <system value="http://terminology.hl7.org/CodeSystem/observation-category"/>
          <code value="laboratory"/>
        </coding>
      </category>
      <code>
        <coding>
          <system value="http://loinc.org"/>
          <code value="TBD-Described"/>
          <display value="Genetic variant assessment"/>
        </coding>
      </code>
      <subject>
        <reference value="Patient/NA12046"/>
      </subject>
      <issued value="2019-03-06T10:05:15+00:00"/>
      <valueCodeableConcept>
        <coding>
          <system value="http://loinc.org"/>
          <code value="LA9633-4"/>
          <display value="Present"/>
        </coding>
      </valueCodeableConcept>
      <component>
        <code>
          <coding>
            <system value="http://loinc.org"/>
            <code value="62374-4"/>
            <display value="Human reference sequence assembly version"/>
          </coding>
        </code>
        <valueCodeableConcept>
          <coding>
            <system value="http://loinc.org"/>
            <code value="LA14029-5"/>
            <display value="GRCh37"/>
          </coding>
        </valueCodeableConcept>
      </component>
      <component>
        <code>
          <coding>
            <system value="http://loinc.org"/>
            <code value="48013-7"/>
            <display value="Genomic reference sequence ID"/>
          </coding>
        </code>
        <valueCodeableConcept>
          <coding>
            <system value="http://www.ncbi.nlm.nih.gov/nuccore"/>
            <code value="NC_000006.11"/>
          </coding>
        </valueCodeableConcept>
      </component>
      <component>
        <code>
          <coding>
            <system value="http://loinc.org"/>
            <code value="53034-5"/>
            <display value="Allelic state"/>
          </coding>
        </code>
        <valueCodeableConcept>
          <coding>
            <system value="http://loinc.org"/>
            <code value="LA6705-3"/>
            <display value="homozygous"/>
          </coding>
        </valueCodeableConcept>
      </component>
      <component>
        <code>
          <coding>
            <system value="http://loinc.org"/>
            <code value="69547-8"/>
            <display value="Genomic Ref allele"/>
          </coding>
        </code>
        <valueString value="C"/>
      </component>
      <component>
        <code>
          <coding>
            <system value="http://loinc.org"/>
            <code value="69551-0"/>
            <display value="Genomic Alt allele"/>
          </coding>
        </code>
        <valueString value="T"/>
      </component>
      <component>
        <code>
          <coding>
            <system value="http://loinc.org"/>
            <code value="tbd-coordinate system"/>
            <display value="Genomic coordinate system"/>
          </coding>
        </code>
        <valueCodeableConcept>
          <coding>
            <system value="http://hl7.org/fhir/uv/genomics-reporting/CodeSystem/genetic-coordinate-system"/>
            <code value="1"/>
          </coding>
        </valueCodeableConcept>
      </component>
      <component>
        <code>
          <coding>
            <system value="http://loinc.org"/>
            <code value="81254-5"/>
            <display value="Genomic Allele start-end"/>
          </coding>
        </code>
        <valueRange>
          <low>
            <value value="18149526"/>
          </low>
        </valueRange>
      </component>
    </Observation>
  </contained>
  <contained>
    <Observation>
      <id value="dv-5c7f9b5bd1c46"/>
      <meta>
        <profile value="http://hl7.org/fhir/uv/genomics-reporting/StructureDefinition/obs-described-variant"/>
      </meta>
      <status value="final"/>
      <category>
        <coding>
          <system value="http://terminology.hl7.org/CodeSystem/observation-category"/>
          <code value="laboratory"/>
        </coding>
      </category>
      <code>
        <coding>
          <system value="http://loinc.org"/>
          <code value="TBD-Described"/>
          <display value="Genetic variant assessment"/>
        </coding>
      </code>
      <subject>
        <reference value="Patient/NA12046"/>
      </subject>
      <issued value="2019-03-06T10:05:15+00:00"/>
      <valueCodeableConcept>
        <coding>
          <system value="http://loinc.org"/>
          <code value="LA9633-4"/>
          <display value="Present"/>
        </coding>
      </valueCodeableConcept>
      <component>
        <code>
          <coding>
            <system value="http://loinc.org"/>
            <code value="62374-4"/>
            <display value="Human reference sequence assembly version"/>
          </coding>
        </code>
        <valueCodeableConcept>
          <coding>
            <system value="http://loinc.org"/>
            <code value="LA14029-5"/>
            <display value="GRCh37"/>
          </coding>
        </valueCodeableConcept>
      </component>
      <component>
        <code>
          <coding>
            <system value="http://loinc.org"/>
            <code value="48013-7"/>
            <display value="Genomic reference sequence ID"/>
          </coding>
        </code>
        <valueCodeableConcept>
          <coding>
            <system value="http://www.ncbi.nlm.nih.gov/nuccore"/>
            <code value="NC_000006.11"/>
          </coding>
        </valueCodeableConcept>
      </component>
      <component>
        <code>
          <coding>
            <system value="http://loinc.org"/>
            <code value="53034-5"/>
            <display value="Allelic state"/>
          </coding>
        </code>
        <valueCodeableConcept>
          <coding>
            <system value="http://loinc.org"/>
            <code value="LA6705-3"/>
            <display value="homozygous"/>
          </coding>
        </valueCodeableConcept>
      </component>
      <component>
        <code>
          <coding>
            <system value="http://loinc.org"/>
            <code value="69547-8"/>
            <display value="Genomic Ref allele"/>
          </coding>
        </code>
        <valueString value="C"/>
      </component>
      <component>
        <code>
          <coding>
            <system value="http://loinc.org"/>
            <code value="69551-0"/>
            <display value="Genomic Alt allele"/>
          </coding>
        </code>
        <valueString value="G"/>
      </component>
      <component>
        <code>
          <coding>
            <system value="http://loinc.org"/>
            <code value="tbd-coordinate system"/>
            <display value="Genomic coordinate system"/>
          </coding>
        </code>
        <valueCodeableConcept>
          <coding>
            <system value="http://hl7.org/fhir/uv/genomics-reporting/CodeSystem/genetic-coordinate-system"/>
            <code value="1"/>
          </coding>
        </valueCodeableConcept>
      </component>
      <component>
        <code>
          <coding>
            <system value="http://loinc.org"/>
            <code value="81254-5"/>
            <display value="Genomic Allele start-end"/>
          </coding>
        </code>
        <valueRange>
          <low>
            <value value="18150514"/>
          </low>
        </valueRange>
      </component>
    </Observation>
  </contained>
  <contained>
    <Observation>
      <id value="dv-5c7f9b5bd1cc4"/>
      <meta>
        <profile value="http://hl7.org/fhir/uv/genomics-reporting/StructureDefinition/obs-described-variant"/>
      </meta>
      <status value="final"/>
      <category>
        <coding>
          <system value="http://terminology.hl7.org/CodeSystem/observation-category"/>
          <code value="laboratory"/>
        </coding>
      </category>
      <code>
        <coding>
          <system value="http://loinc.org"/>
          <code value="TBD-Described"/>
          <display value="Genetic variant assessment"/>
        </coding>
      </code>
      <subject>
        <reference value="Patient/NA12046"/>
      </subject>
      <issued value="2019-03-06T10:05:15+00:00"/>
      <valueCodeableConcept>
        <coding>
          <system value="http://loinc.org"/>
          <code value="LA9633-4"/>
          <display value="Present"/>
        </coding>
      </valueCodeableConcept>
      <component>
        <code>
          <coding>
            <system value="http://loinc.org"/>
            <code value="62374-4"/>
            <display value="Human reference sequence assembly version"/>
          </coding>
        </code>
        <valueCodeableConcept>
          <coding>
            <system value="http://loinc.org"/>
            <code value="LA14029-5"/>
            <display value="GRCh37"/>
          </coding>
        </valueCodeableConcept>
      </component>
      <component>
        <code>
          <coding>
            <system value="http://loinc.org"/>
            <code value="48013-7"/>
            <display value="Genomic reference sequence ID"/>
          </coding>
        </code>
        <valueCodeableConcept>
          <coding>
            <system value="http://www.ncbi.nlm.nih.gov/nuccore"/>
            <code value="NC_000006.11"/>
          </coding>
        </valueCodeableConcept>
      </component>
      <component>
        <code>
          <coding>
            <system value="http://loinc.org"/>
            <code value="53034-5"/>
            <display value="Allelic state"/>
          </coding>
        </code>
        <valueCodeableConcept>
          <coding>
            <system value="http://loinc.org"/>
            <code value="LA6706-1"/>
            <display value="heterozygous"/>
          </coding>
        </valueCodeableConcept>
      </component>
      <component>
        <code>
          <coding>
            <system value="http://loinc.org"/>
            <code value="69547-8"/>
            <display value="Genomic Ref allele"/>
          </coding>
        </code>
        <valueString value="G"/>
      </component>
      <component>
        <code>
          <coding>
            <system value="http://loinc.org"/>
            <code value="69551-0"/>
            <display value="Genomic Alt allele"/>
          </coding>
        </code>
        <valueString value="C"/>
      </component>
      <component>
        <code>
          <coding>
            <system value="http://loinc.org"/>
            <code value="tbd-coordinate system"/>
            <display value="Genomic coordinate system"/>
          </coding>
        </code>
        <valueCodeableConcept>
          <coding>
            <system value="http://hl7.org/fhir/uv/genomics-reporting/CodeSystem/genetic-coordinate-system"/>
            <code value="1"/>
          </coding>
        </valueCodeableConcept>
      </component>
      <component>
        <code>
          <coding>
            <system value="http://loinc.org"/>
            <code value="81254-5"/>
            <display value="Genomic Allele start-end"/>
          </coding>
        </code>
        <valueRange>
          <low>
            <value value="18151160"/>
          </low>
        </valueRange>
      </component>
    </Observation>
  </contained>
  <contained>
    <Observation>
      <id value="dv-5c7f9b5bd1d42"/>
      <meta>
        <profile value="http://hl7.org/fhir/uv/genomics-reporting/StructureDefinition/obs-described-variant"/>
      </meta>
      <status value="final"/>
      <category>
        <coding>
          <system value="http://terminology.hl7.org/CodeSystem/observation-category"/>
          <code value="laboratory"/>
        </coding>
      </category>
      <code>
        <coding>
          <system value="http://loinc.org"/>
          <code value="TBD-Described"/>
          <display value="Genetic variant assessment"/>
        </coding>
      </code>
      <subject>
        <reference value="Patient/NA12046"/>
      </subject>
      <issued value="2019-03-06T10:05:15+00:00"/>
      <valueCodeableConcept>
        <coding>
          <system value="http://loinc.org"/>
          <code value="LA9633-4"/>
          <display value="Present"/>
        </coding>
      </valueCodeableConcept>
      <component>
        <code>
          <coding>
            <system value="http://loinc.org"/>
            <code value="62374-4"/>
            <display value="Human reference sequence assembly version"/>
          </coding>
        </code>
        <valueCodeableConcept>
          <coding>
            <system value="http://loinc.org"/>
            <code value="LA14029-5"/>
            <display value="GRCh37"/>
          </coding>
        </valueCodeableConcept>
      </component>
      <component>
        <code>
          <coding>
            <system value="http://loinc.org"/>
            <code value="48013-7"/>
            <display value="Genomic reference sequence ID"/>
          </coding>
        </code>
        <valueCodeableConcept>
          <coding>
            <system value="http://www.ncbi.nlm.nih.gov/nuccore"/>
            <code value="NC_000006.11"/>
          </coding>
        </valueCodeableConcept>
      </component>
      <component>
        <code>
          <coding>
            <system value="http://loinc.org"/>
            <code value="53034-5"/>
            <display value="Allelic state"/>
          </coding>
        </code>
        <valueCodeableConcept>
          <coding>
            <system value="http://loinc.org"/>
            <code value="LA6706-1"/>
            <display value="heterozygous"/>
          </coding>
        </valueCodeableConcept>
      </component>
      <component>
        <code>
          <coding>
            <system value="http://loinc.org"/>
            <code value="69547-8"/>
            <display value="Genomic Ref allele"/>
          </coding>
        </code>
        <valueString value="T"/>
      </component>
      <component>
        <code>
          <coding>
            <system value="http://loinc.org"/>
            <code value="69551-0"/>
            <display value="Genomic Alt allele"/>
          </coding>
        </code>
        <valueString value="TC"/>
      </component>
      <component>
        <code>
          <coding>
            <system value="http://loinc.org"/>
            <code value="tbd-coordinate system"/>
            <display value="Genomic coordinate system"/>
          </coding>
        </code>
        <valueCodeableConcept>
          <coding>
            <system value="http://hl7.org/fhir/uv/genomics-reporting/CodeSystem/genetic-coordinate-system"/>
            <code value="1"/>
          </coding>
        </valueCodeableConcept>
      </component>
      <component>
        <code>
          <coding>
            <system value="http://loinc.org"/>
            <code value="81254-5"/>
            <display value="Genomic Allele start-end"/>
          </coding>
        </code>
        <valueRange>
          <low>
            <value value="18152825"/>
          </low>
        </valueRange>
      </component>
    </Observation>
  </contained>
  <contained>
    <Observation>
      <id value="dv-5c7f9b5bd1dc0"/>
      <meta>
        <profile value="http://hl7.org/fhir/uv/genomics-reporting/StructureDefinition/obs-described-variant"/>
      </meta>
      <status value="final"/>
      <category>
        <coding>
          <system value="http://terminology.hl7.org/CodeSystem/observation-category"/>
          <code value="laboratory"/>
        </coding>
      </category>
      <code>
        <coding>
          <system value="http://loinc.org"/>
          <code value="TBD-Described"/>
          <display value="Genetic variant assessment"/>
        </coding>
      </code>
      <subject>
        <reference value="Patient/NA12046"/>
      </subject>
      <issued value="2019-03-06T10:05:15+00:00"/>
      <valueCodeableConcept>
        <coding>
          <system value="http://loinc.org"/>
          <code value="LA9633-4"/>
          <display value="Present"/>
        </coding>
      </valueCodeableConcept>
      <component>
        <code>
          <coding>
            <system value="http://loinc.org"/>
            <code value="62374-4"/>
            <display value="Human reference sequence assembly version"/>
          </coding>
        </code>
        <valueCodeableConcept>
          <coding>
            <system value="http://loinc.org"/>
            <code value="LA14029-5"/>
            <display value="GRCh37"/>
          </coding>
        </valueCodeableConcept>
      </component>
      <component>
        <code>
          <coding>
            <system value="http://loinc.org"/>
            <code value="48013-7"/>
            <display value="Genomic reference sequence ID"/>
          </coding>
        </code>
        <valueCodeableConcept>
          <coding>
            <system value="http://www.ncbi.nlm.nih.gov/nuccore"/>
            <code value="NC_000006.11"/>
          </coding>
        </valueCodeableConcept>
      </component>
      <component>
        <code>
          <coding>
            <system value="http://loinc.org"/>
            <code value="53034-5"/>
            <display value="Allelic state"/>
          </coding>
        </code>
        <valueCodeableConcept>
          <coding>
            <system value="http://loinc.org"/>
            <code value="LA6705-3"/>
            <display value="homozygous"/>
          </coding>
        </valueCodeableConcept>
      </component>
      <component>
        <code>
          <coding>
            <system value="http://loinc.org"/>
            <code value="69547-8"/>
            <display value="Genomic Ref allele"/>
          </coding>
        </code>
        <valueString value="A"/>
      </component>
      <component>
        <code>
          <coding>
            <system value="http://loinc.org"/>
            <code value="69551-0"/>
            <display value="Genomic Alt allele"/>
          </coding>
        </code>
        <valueString value="G"/>
      </component>
      <component>
        <code>
          <coding>
            <system value="http://loinc.org"/>
            <code value="tbd-coordinate system"/>
            <display value="Genomic coordinate system"/>
          </coding>
        </code>
        <valueCodeableConcept>
          <coding>
            <system value="http://hl7.org/fhir/uv/genomics-reporting/CodeSystem/genetic-coordinate-system"/>
            <code value="1"/>
          </coding>
        </valueCodeableConcept>
      </component>
      <component>
        <code>
          <coding>
            <system value="http://loinc.org"/>
            <code value="81254-5"/>
            <display value="Genomic Allele start-end"/>
          </coding>
        </code>
        <valueRange>
          <low>
            <value value="18153029"/>
          </low>
        </valueRange>
      </component>
    </Observation>
  </contained>
  <contained>
    <Observation>
      <id value="dv-5c7f9b5bd1e3d"/>
      <meta>
        <profile value="http://hl7.org/fhir/uv/genomics-reporting/StructureDefinition/obs-described-variant"/>
      </meta>
      <status value="final"/>
      <category>
        <coding>
          <system value="http://terminology.hl7.org/CodeSystem/observation-category"/>
          <code value="laboratory"/>
        </coding>
      </category>
      <code>
        <coding>
          <system value="http://loinc.org"/>
          <code value="TBD-Described"/>
          <display value="Genetic variant assessment"/>
        </coding>
      </code>
      <subject>
        <reference value="Patient/NA12046"/>
      </subject>
      <issued value="2019-03-06T10:05:15+00:00"/>
      <valueCodeableConcept>
        <coding>
          <system value="http://loinc.org"/>
          <code value="LA9633-4"/>
          <display value="Present"/>
        </coding>
      </valueCodeableConcept>
      <component>
        <code>
          <coding>
            <system value="http://loinc.org"/>
            <code value="62374-4"/>
            <display value="Human reference sequence assembly version"/>
          </coding>
        </code>
        <valueCodeableConcept>
          <coding>
            <system value="http://loinc.org"/>
            <code value="LA14029-5"/>
            <display value="GRCh37"/>
          </coding>
        </valueCodeableConcept>
      </component>
      <component>
        <code>
          <coding>
            <system value="http://loinc.org"/>
            <code value="48013-7"/>
            <display value="Genomic reference sequence ID"/>
          </coding>
        </code>
        <valueCodeableConcept>
          <coding>
            <system value="http://www.ncbi.nlm.nih.gov/nuccore"/>
            <code value="NC_000006.11"/>
          </coding>
        </valueCodeableConcept>
      </component>
      <component>
        <code>
          <coding>
            <system value="http://loinc.org"/>
            <code value="53034-5"/>
            <display value="Allelic state"/>
          </coding>
        </code>
        <valueCodeableConcept>
          <coding>
            <system value="http://loinc.org"/>
            <code value="LA6706-1"/>
            <display value="heterozygous"/>
          </coding>
        </valueCodeableConcept>
      </component>
      <component>
        <code>
          <coding>
            <system value="http://loinc.org"/>
            <code value="69547-8"/>
            <display value="Genomic Ref allele"/>
          </coding>
        </code>
        <valueString value="T"/>
      </component>
      <component>
        <code>
          <coding>
            <system value="http://loinc.org"/>
            <code value="69551-0"/>
            <display value="Genomic Alt allele"/>
          </coding>
        </code>
        <valueString value="A"/>
      </component>
      <component>
        <code>
          <coding>
            <system value="http://loinc.org"/>
            <code value="tbd-coordinate system"/>
            <display value="Genomic coordinate system"/>
          </coding>
        </code>
        <valueCodeableConcept>
          <coding>
            <system value="http://hl7.org/fhir/uv/genomics-reporting/CodeSystem/genetic-coordinate-system"/>
            <code value="1"/>
          </coding>
        </valueCodeableConcept>
      </component>
      <component>
        <code>
          <coding>
            <system value="http://loinc.org"/>
            <code value="81254-5"/>
            <display value="Genomic Allele start-end"/>
          </coding>
        </code>
        <valueRange>
          <low>
            <value value="18153330"/>
          </low>
        </valueRange>
      </component>
    </Observation>
  </contained>
  <contained>
    <Observation>
      <id value="dv-5c7f9b5bd1ebb"/>
      <meta>
        <profile value="http://hl7.org/fhir/uv/genomics-reporting/StructureDefinition/obs-described-variant"/>
      </meta>
      <status value="final"/>
      <category>
        <coding>
          <system value="http://terminology.hl7.org/CodeSystem/observation-category"/>
          <code value="laboratory"/>
        </coding>
      </category>
      <code>
        <coding>
          <system value="http://loinc.org"/>
          <code value="TBD-Described"/>
          <display value="Genetic variant assessment"/>
        </coding>
      </code>
      <subject>
        <reference value="Patient/NA12046"/>
      </subject>
      <issued value="2019-03-06T10:05:15+00:00"/>
      <valueCodeableConcept>
        <coding>
          <system value="http://loinc.org"/>
          <code value="LA9633-4"/>
          <display value="Present"/>
        </coding>
      </valueCodeableConcept>
      <component>
        <code>
          <coding>
            <system value="http://loinc.org"/>
            <code value="62374-4"/>
            <display value="Human reference sequence assembly version"/>
          </coding>
        </code>
        <valueCodeableConcept>
          <coding>
            <system value="http://loinc.org"/>
            <code value="LA14029-5"/>
            <display value="GRCh37"/>
          </coding>
        </valueCodeableConcept>
      </component>
      <component>
        <code>
          <coding>
            <system value="http://loinc.org"/>
            <code value="48013-7"/>
            <display value="Genomic reference sequence ID"/>
          </coding>
        </code>
        <valueCodeableConcept>
          <coding>
            <system value="http://www.ncbi.nlm.nih.gov/nuccore"/>
            <code value="NC_000006.11"/>
          </coding>
        </valueCodeableConcept>
      </component>
      <component>
        <code>
          <coding>
            <system value="http://loinc.org"/>
            <code value="53034-5"/>
            <display value="Allelic state"/>
          </coding>
        </code>
        <valueCodeableConcept>
          <coding>
            <system value="http://loinc.org"/>
            <code value="LA6706-1"/>
            <display value="heterozygous"/>
          </coding>
        </valueCodeableConcept>
      </component>
      <component>
        <code>
          <coding>
            <system value="http://loinc.org"/>
            <code value="69547-8"/>
            <display value="Genomic Ref allele"/>
          </coding>
        </code>
        <valueString value="T"/>
      </component>
      <component>
        <code>
          <coding>
            <system value="http://loinc.org"/>
            <code value="69551-0"/>
            <display value="Genomic Alt allele"/>
          </coding>
        </code>
        <valueString value="C"/>
      </component>
      <component>
        <code>
          <coding>
            <system value="http://loinc.org"/>
            <code value="tbd-coordinate system"/>
            <display value="Genomic coordinate system"/>
          </coding>
        </code>
        <valueCodeableConcept>
          <coding>
            <system value="http://hl7.org/fhir/uv/genomics-reporting/CodeSystem/genetic-coordinate-system"/>
            <code value="1"/>
          </coding>
        </valueCodeableConcept>
      </component>
      <component>
        <code>
          <coding>
            <system value="http://loinc.org"/>
            <code value="81254-5"/>
            <display value="Genomic Allele start-end"/>
          </coding>
        </code>
        <valueRange>
          <low>
            <value value="18154122"/>
          </low>
        </valueRange>
      </component>
    </Observation>
  </contained>
  <contained>
    <Observation>
      <id value="dv-5c7f9b5bd1f39"/>
      <meta>
        <profile value="http://hl7.org/fhir/uv/genomics-reporting/StructureDefinition/obs-described-variant"/>
      </meta>
      <status value="final"/>
      <category>
        <coding>
          <system value="http://terminology.hl7.org/CodeSystem/observation-category"/>
          <code value="laboratory"/>
        </coding>
      </category>
      <code>
        <coding>
          <system value="http://loinc.org"/>
          <code value="TBD-Described"/>
          <display value="Genetic variant assessment"/>
        </coding>
      </code>
      <subject>
        <reference value="Patient/NA12046"/>
      </subject>
      <issued value="2019-03-06T10:05:15+00:00"/>
      <valueCodeableConcept>
        <coding>
          <system value="http://loinc.org"/>
          <code value="LA9633-4"/>
          <display value="Present"/>
        </coding>
      </valueCodeableConcept>
      <component>
        <code>
          <coding>
            <system value="http://loinc.org"/>
            <code value="62374-4"/>
            <display value="Human reference sequence assembly version"/>
          </coding>
        </code>
        <valueCodeableConcept>
          <coding>
            <system value="http://loinc.org"/>
            <code value="LA14029-5"/>
            <display value="GRCh37"/>
          </coding>
        </valueCodeableConcept>
      </component>
      <component>
        <code>
          <coding>
            <system value="http://loinc.org"/>
            <code value="48013-7"/>
            <display value="Genomic reference sequence ID"/>
          </coding>
        </code>
        <valueCodeableConcept>
          <coding>
            <system value="http://www.ncbi.nlm.nih.gov/nuccore"/>
            <code value="NC_000006.11"/>
          </coding>
        </valueCodeableConcept>
      </component>
      <component>
        <code>
          <coding>
            <system value="http://loinc.org"/>
            <code value="53034-5"/>
            <display value="Allelic state"/>
          </coding>
        </code>
        <valueCodeableConcept>
          <coding>
            <system value="http://loinc.org"/>
            <code value="LA6705-3"/>
            <display value="homozygous"/>
          </coding>
        </valueCodeableConcept>
      </component>
      <component>
        <code>
          <coding>
            <system value="http://loinc.org"/>
            <code value="69547-8"/>
            <display value="Genomic Ref allele"/>
          </coding>
        </code>
        <valueString value="A"/>
      </component>
      <component>
        <code>
          <coding>
            <system value="http://loinc.org"/>
            <code value="69551-0"/>
            <display value="Genomic Alt allele"/>
          </coding>
        </code>
        <valueString value="T"/>
      </component>
      <component>
        <code>
          <coding>
            <system value="http://loinc.org"/>
            <code value="tbd-coordinate system"/>
            <display value="Genomic coordinate system"/>
          </coding>
        </code>
        <valueCodeableConcept>
          <coding>
            <system value="http://hl7.org/fhir/uv/genomics-reporting/CodeSystem/genetic-coordinate-system"/>
            <code value="1"/>
          </coding>
        </valueCodeableConcept>
      </component>
      <component>
        <code>
          <coding>
            <system value="http://loinc.org"/>
            <code value="81254-5"/>
            <display value="Genomic Allele start-end"/>
          </coding>
        </code>
        <valueRange>
          <low>
            <value value="18154515"/>
          </low>
        </valueRange>
      </component>
    </Observation>
  </contained>
  <contained>
    <Observation>
      <id value="dv-5c7f9b5bd1fb8"/>
      <meta>
        <profile value="http://hl7.org/fhir/uv/genomics-reporting/StructureDefinition/obs-described-variant"/>
      </meta>
      <status value="final"/>
      <category>
        <coding>
          <system value="http://terminology.hl7.org/CodeSystem/observation-category"/>
          <code value="laboratory"/>
        </coding>
      </category>
      <code>
        <coding>
          <system value="http://loinc.org"/>
          <code value="TBD-Described"/>
          <display value="Genetic variant assessment"/>
        </coding>
      </code>
      <subject>
        <reference value="Patient/NA12046"/>
      </subject>
      <issued value="2019-03-06T10:05:15+00:00"/>
      <valueCodeableConcept>
        <coding>
          <system value="http://loinc.org"/>
          <code value="LA9633-4"/>
          <display value="Present"/>
        </coding>
      </valueCodeableConcept>
      <component>
        <code>
          <coding>
            <system value="http://loinc.org"/>
            <code value="62374-4"/>
            <display value="Human reference sequence assembly version"/>
          </coding>
        </code>
        <valueCodeableConcept>
          <coding>
            <system value="http://loinc.org"/>
            <code value="LA14029-5"/>
            <display value="GRCh37"/>
          </coding>
        </valueCodeableConcept>
      </component>
      <component>
        <code>
          <coding>
            <system value="http://loinc.org"/>
            <code value="48013-7"/>
            <display value="Genomic reference sequence ID"/>
          </coding>
        </code>
        <valueCodeableConcept>
          <coding>
            <system value="http://www.ncbi.nlm.nih.gov/nuccore"/>
            <code value="NC_000006.11"/>
          </coding>
        </valueCodeableConcept>
      </component>
      <component>
        <code>
          <coding>
            <system value="http://loinc.org"/>
            <code value="53034-5"/>
            <display value="Allelic state"/>
          </coding>
        </code>
        <valueCodeableConcept>
          <coding>
            <system value="http://loinc.org"/>
            <code value="LA6705-3"/>
            <display value="homozygous"/>
          </coding>
        </valueCodeableConcept>
      </component>
      <component>
        <code>
          <coding>
            <system value="http://loinc.org"/>
            <code value="69547-8"/>
            <display value="Genomic Ref allele"/>
          </coding>
        </code>
        <valueString value="C"/>
      </component>
      <component>
        <code>
          <coding>
            <system value="http://loinc.org"/>
            <code value="69551-0"/>
            <display value="Genomic Alt allele"/>
          </coding>
        </code>
        <valueString value="T"/>
      </component>
      <component>
        <code>
          <coding>
            <system value="http://loinc.org"/>
            <code value="tbd-coordinate system"/>
            <display value="Genomic coordinate system"/>
          </coding>
        </code>
        <valueCodeableConcept>
          <coding>
            <system value="http://hl7.org/fhir/uv/genomics-reporting/CodeSystem/genetic-coordinate-system"/>
            <code value="1"/>
          </coding>
        </valueCodeableConcept>
      </component>
      <component>
        <code>
          <coding>
            <system value="http://loinc.org"/>
            <code value="81254-5"/>
            <display value="Genomic Allele start-end"/>
          </coding>
        </code>
        <valueRange>
          <low>
            <value value="18154895"/>
          </low>
        </valueRange>
      </component>
    </Observation>
  </contained>
  <contained>
    <Observation>
      <id value="sid-5c7f9b5bd2041"/>
      <meta>
        <profile value="http://hl7.org/fhir/uv/genomics-reporting/StructureDefinition/obs-sequence-phase-reltn"/>
      </meta>
      <extension url="http://hl7.org/fhir/uv/genomics-reporting/StructureDefinition/obs-focus">
        <valueReference>
          <reference value="#dv-5c7f9b5bd0927"/>
        </valueReference>
      </extension>
      <extension url="http://hl7.org/fhir/uv/genomics-reporting/StructureDefinition/obs-focus">
        <valueReference>
          <reference value="#dv-5c7f9b5bd0a68"/>
        </valueReference>
      </extension>
      <status value="final"/>
      <category>
        <coding>
          <system value="http://terminology.hl7.org/CodeSystem/observation-category"/>
          <code value="laboratory"/>
        </coding>
      </category>
      <code>
        <coding>
          <system value="http://loinc.org"/>
          <code value="TBD-sequence-phase-relation"/>
          <display value="Sequence phase relationship"/>
        </coding>
      </code>
      <subject>
        <reference value="Patient/NA12046"/>
      </subject>
      <issued value="2019-03-06T10:05:15+00:00"/>
      <valueCodeableConcept>
        <coding>
          <system value="http://loinc.org"/>
          <code value="TBD-cisTrans"/>
          <display value="Cis"/>
        </coding>
      </valueCodeableConcept>
    </Observation>
  </contained>
  <contained>
    <Observation>
      <id value="sid-5c7f9b5bd2077"/>
      <meta>
        <profile value="http://hl7.org/fhir/uv/genomics-reporting/StructureDefinition/obs-sequence-phase-reltn"/>
      </meta>
      <extension url="http://hl7.org/fhir/uv/genomics-reporting/StructureDefinition/obs-focus">
        <valueReference>
          <reference value="#dv-5c7f9b5bd0e12"/>
        </valueReference>
      </extension>
      <extension url="http://hl7.org/fhir/uv/genomics-reporting/StructureDefinition/obs-focus">
        <valueReference>
          <reference value="#dv-5c7f9b5bd0f1b"/>
        </valueReference>
      </extension>
      <status value="final"/>
      <category>
        <coding>
          <system value="http://terminology.hl7.org/CodeSystem/observation-category"/>
          <code value="laboratory"/>
        </coding>
      </category>
      <code>
        <coding>
          <system value="http://loinc.org"/>
          <code value="TBD-sequence-phase-relation"/>
          <display value="Sequence phase relationship"/>
        </coding>
      </code>
      <subject>
        <reference value="Patient/NA12046"/>
      </subject>
      <issued value="2019-03-06T10:05:15+00:00"/>
      <valueCodeableConcept>
        <coding>
          <system value="http://loinc.org"/>
          <code value="TBD-cisTrans"/>
          <display value="Cis"/>
        </coding>
      </valueCodeableConcept>
    </Observation>
  </contained>
  <contained>
    <Observation>
      <id value="sid-5c7f9b5bd20ac"/>
      <meta>
        <profile value="http://hl7.org/fhir/uv/genomics-reporting/StructureDefinition/obs-sequence-phase-reltn"/>
      </meta>
      <extension url="http://hl7.org/fhir/uv/genomics-reporting/StructureDefinition/obs-focus">
        <valueReference>
          <reference value="#dv-5c7f9b5bd103b"/>
        </valueReference>
      </extension>
      <extension url="http://hl7.org/fhir/uv/genomics-reporting/StructureDefinition/obs-focus">
        <valueReference>
          <reference value="#dv-5c7f9b5bd10d4"/>
        </valueReference>
      </extension>
      <status value="final"/>
      <category>
        <coding>
          <system value="http://terminology.hl7.org/CodeSystem/observation-category"/>
          <code value="laboratory"/>
        </coding>
      </category>
      <code>
        <coding>
          <system value="http://loinc.org"/>
          <code value="TBD-sequence-phase-relation"/>
          <display value="Sequence phase relationship"/>
        </coding>
      </code>
      <subject>
        <reference value="Patient/NA12046"/>
      </subject>
      <issued value="2019-03-06T10:05:15+00:00"/>
      <valueCodeableConcept>
        <coding>
          <system value="http://loinc.org"/>
          <code value="TBD-cisTrans"/>
          <display value="Cis"/>
        </coding>
      </valueCodeableConcept>
    </Observation>
  </contained>
  <contained>
    <Observation>
      <id value="sid-5c7f9b5bd20e1"/>
      <meta>
        <profile value="http://hl7.org/fhir/uv/genomics-reporting/StructureDefinition/obs-sequence-phase-reltn"/>
      </meta>
      <extension url="http://hl7.org/fhir/uv/genomics-reporting/StructureDefinition/obs-focus">
        <valueReference>
          <reference value="#dv-5c7f9b5bd10d4"/>
        </valueReference>
      </extension>
      <extension url="http://hl7.org/fhir/uv/genomics-reporting/StructureDefinition/obs-focus">
        <valueReference>
          <reference value="#dv-5c7f9b5bd1163"/>
        </valueReference>
      </extension>
      <status value="final"/>
      <category>
        <coding>
          <system value="http://terminology.hl7.org/CodeSystem/observation-category"/>
          <code value="laboratory"/>
        </coding>
      </category>
      <code>
        <coding>
          <system value="http://loinc.org"/>
          <code value="TBD-sequence-phase-relation"/>
          <display value="Sequence phase relationship"/>
        </coding>
      </code>
      <subject>
        <reference value="Patient/NA12046"/>
      </subject>
      <issued value="2019-03-06T10:05:15+00:00"/>
      <valueCodeableConcept>
        <coding>
          <system value="http://loinc.org"/>
          <code value="TBD-cisTrans"/>
          <display value="Cis"/>
        </coding>
      </valueCodeableConcept>
    </Observation>
  </contained>
  <contained>
    <Observation>
      <id value="sid-5c7f9b5bd2116"/>
      <meta>
        <profile value="http://hl7.org/fhir/uv/genomics-reporting/StructureDefinition/obs-sequence-phase-reltn"/>
      </meta>
      <extension url="http://hl7.org/fhir/uv/genomics-reporting/StructureDefinition/obs-focus">
        <valueReference>
          <reference value="#dv-5c7f9b5bd11f2"/>
        </valueReference>
      </extension>
      <extension url="http://hl7.org/fhir/uv/genomics-reporting/StructureDefinition/obs-focus">
        <valueReference>
          <reference value="#dv-5c7f9b5bd1273"/>
        </valueReference>
      </extension>
      <status value="final"/>
      <category>
        <coding>
          <system value="http://terminology.hl7.org/CodeSystem/observation-category"/>
          <code value="laboratory"/>
        </coding>
      </category>
      <code>
        <coding>
          <system value="http://loinc.org"/>
          <code value="TBD-sequence-phase-relation"/>
          <display value="Sequence phase relationship"/>
        </coding>
      </code>
      <subject>
        <reference value="Patient/NA12046"/>
      </subject>
      <issued value="2019-03-06T10:05:15+00:00"/>
      <valueCodeableConcept>
        <coding>
          <system value="http://loinc.org"/>
          <code value="TBD-cisTrans"/>
          <display value="Cis"/>
        </coding>
      </valueCodeableConcept>
    </Observation>
  </contained>
  <contained>
    <Observation>
      <id value="sid-5c7f9b5bd214b"/>
      <meta>
        <profile value="http://hl7.org/fhir/uv/genomics-reporting/StructureDefinition/obs-sequence-phase-reltn"/>
      </meta>
      <extension url="http://hl7.org/fhir/uv/genomics-reporting/StructureDefinition/obs-focus">
        <valueReference>
          <reference value="#dv-5c7f9b5bd1273"/>
        </valueReference>
      </extension>
      <extension url="http://hl7.org/fhir/uv/genomics-reporting/StructureDefinition/obs-focus">
        <valueReference>
          <reference value="#dv-5c7f9b5bd12f0"/>
        </valueReference>
      </extension>
      <status value="final"/>
      <category>
        <coding>
          <system value="http://terminology.hl7.org/CodeSystem/observation-category"/>
          <code value="laboratory"/>
        </coding>
      </category>
      <code>
        <coding>
          <system value="http://loinc.org"/>
          <code value="TBD-sequence-phase-relation"/>
          <display value="Sequence phase relationship"/>
        </coding>
      </code>
      <subject>
        <reference value="Patient/NA12046"/>
      </subject>
      <issued value="2019-03-06T10:05:15+00:00"/>
      <valueCodeableConcept>
        <coding>
          <system value="http://loinc.org"/>
          <code value="TBD-cisTrans"/>
          <display value="Cis"/>
        </coding>
      </valueCodeableConcept>
    </Observation>
  </contained>
  <status value="final"/>
  <code>
    <coding>
      <system value="http://loinc.org"/>
      <code value="51969-4"/>
    </coding>
    <text value="Genetic analysis report"/>
  </code>
  <subject>
    <reference value="Patient/NA12046"/>
  </subject>
  <result>
    <reference value="#rs-5c7f9b5bd07f0"/>
  </result>
  <result>
    <reference value="#dv-5c7f9b5bd0895"/>
  </result>
  <result>
    <reference value="#dv-5c7f9b5bd0927"/>
  </result>
  <result>
    <reference value="#dv-5c7f9b5bd09ab"/>
  </result>
  <result>
    <reference value="#dv-5c7f9b5bd0a68"/>
  </result>
  <result>
    <reference value="#dv-5c7f9b5bd0b25"/>
  </result>
  <result>
    <reference value="#dv-5c7f9b5bd0bc1"/>
  </result>
  <result>
    <reference value="#dv-5c7f9b5bd0c4f"/>
  </result>
  <result>
    <reference value="#dv-5c7f9b5bd0cf6"/>
  </result>
  <result>
    <reference value="#dv-5c7f9b5bd0d87"/>
  </result>
  <result>
    <reference value="#dv-5c7f9b5bd0e12"/>
  </result>
  <result>
    <reference value="#dv-5c7f9b5bd0e9a"/>
  </result>
  <result>
    <reference value="#dv-5c7f9b5bd0f1b"/>
  </result>
  <result>
    <reference value="#dv-5c7f9b5bd0fa8"/>
  </result>
  <result>
    <reference value="#dv-5c7f9b5bd103b"/>
  </result>
  <result>
    <reference value="#dv-5c7f9b5bd10d4"/>
  </result>
  <result>
    <reference value="#dv-5c7f9b5bd1163"/>
  </result>
  <result>
    <reference value="#dv-5c7f9b5bd11f2"/>
  </result>
  <result>
    <reference value="#dv-5c7f9b5bd1273"/>
  </result>
  <result>
    <reference value="#dv-5c7f9b5bd12f0"/>
  </result>
  <result>
    <reference value="#dv-5c7f9b5bd136e"/>
  </result>
  <result>
    <reference value="#dv-5c7f9b5bd13eb"/>
  </result>
  <result>
    <reference value="#dv-5c7f9b5bd1469"/>
  </result>
  <result>
    <reference value="#dv-5c7f9b5bd14e7"/>
  </result>
  <result>
    <reference value="#dv-5c7f9b5bd1565"/>
  </result>
  <result>
    <reference value="#dv-5c7f9b5bd15e3"/>
  </result>
  <result>
    <reference value="#dv-5c7f9b5bd1661"/>
  </result>
  <result>
    <reference value="#dv-5c7f9b5bd16de"/>
  </result>
  <result>
    <reference value="#dv-5c7f9b5bd175d"/>
  </result>
  <result>
    <reference value="#dv-5c7f9b5bd17da"/>
  </result>
  <result>
    <reference value="#dv-5c7f9b5bd1858"/>
  </result>
  <result>
    <reference value="#dv-5c7f9b5bd18d6"/>
  </result>
  <result>
    <reference value="#dv-5c7f9b5bd1954"/>
  </result>
  <result>
    <reference value="#dv-5c7f9b5bd19d1"/>
  </result>
  <result>
    <reference value="#dv-5c7f9b5bd1a4f"/>
  </result>
  <result>
    <reference value="#dv-5c7f9b5bd1acd"/>
  </result>
  <result>
    <reference value="#dv-5c7f9b5bd1b4b"/>
  </result>
  <result>
    <reference value="#dv-5c7f9b5bd1bc8"/>
  </result>
  <result>
    <reference value="#dv-5c7f9b5bd1c46"/>
  </result>
  <result>
    <reference value="#dv-5c7f9b5bd1cc4"/>
  </result>
  <result>
    <reference value="#dv-5c7f9b5bd1d42"/>
  </result>
  <result>
    <reference value="#dv-5c7f9b5bd1dc0"/>
  </result>
  <result>
    <reference value="#dv-5c7f9b5bd1e3d"/>
  </result>
  <result>
    <reference value="#dv-5c7f9b5bd1ebb"/>
  </result>
  <result>
    <reference value="#dv-5c7f9b5bd1f39"/>
  </result>
  <result>
    <reference value="#dv-5c7f9b5bd1fb8"/>
  </result>
  <result>
    <reference value="#sid-5c7f9b5bd2041"/>
  </result>
  <result>
    <reference value="#sid-5c7f9b5bd2077"/>
  </result>
  <result>
    <reference value="#sid-5c7f9b5bd20ac"/>
  </result>
  <result>
    <reference value="#sid-5c7f9b5bd20e1"/>
  </result>
  <result>
    <reference value="#sid-5c7f9b5bd2116"/>
  </result>
  <result>
    <reference value="#sid-5c7f9b5bd214b"/>
  </result>
</DiagnosticReport>