<?xml version="1.0" encoding="utf-8"?>
<DiagnosticReport xmlns="http://hl7.org/fhir">
  <id value="dr-5c7fbf91e630a"/>
  <meta>
    <profile value="http://hl7.org/fhir/uv/genomics-reporting/StructureDefinition/diagnosticreport"/>
  </meta>
  <contained>
    <Observation>
      <id value="rs-5c7fbf91e62a4"/>
      <meta>
        <profile value="http://hl7.org/fhir/uv/genomics-reporting/StructureDefinition/obs-region-studied"/>
      </meta>
      <status value="final"/>
      <category>
        <coding>
          <system value="http://terminology.hl7.org/CodeSystem/observation-category"/>
          <code value="laboratory"/>
        </coding>
      </category>
      <code>
        <coding>
          <system value="http://loinc.org"/>
          <code value="TBD-RegionsStudied"/>
          <display value="Region studied"/>
        </coding>
      </code>
      <subject>
        <reference value="Patient/NA19435"/>
      </subject>
      <issued value="2019-03-06T12:39:45+00:00"/>
      <valueCodeableConcept>
        <coding>
          <system value="http://loinc.org"/>
          <code value="LA9633-4"/>
          <display value="Present"/>
        </coding>
      </valueCodeableConcept>
      <component>
        <code>
          <coding>
            <system value="http://loinc.org"/>
            <code value="48018-6"/>
            <display value="Gene studied ID"/>
          </coding>
        </code>
        <valueCodeableConcept>
          <coding>
            <system value="http://www.genenames.org"/>
            <code value="HGNC:2621"/>
            <display value="CYP2C19"/>
          </coding>
        </valueCodeableConcept>
      </component>
    </Observation>
  </contained>
  <contained>
    <Observation>
      <id value="dv-5c7fbf91e6345"/>
      <meta>
        <profile value="http://hl7.org/fhir/uv/genomics-reporting/StructureDefinition/obs-described-variant"/>
      </meta>
      <status value="final"/>
      <category>
        <coding>
          <system value="http://terminology.hl7.org/CodeSystem/observation-category"/>
          <code value="laboratory"/>
        </coding>
      </category>
      <code>
        <coding>
          <system value="http://loinc.org"/>
          <code value="TBD-Described"/>
          <display value="Genetic variant assessment"/>
        </coding>
      </code>
      <subject>
        <reference value="Patient/NA19435"/>
      </subject>
      <issued value="2019-03-06T12:39:45+00:00"/>
      <valueCodeableConcept>
        <coding>
          <system value="http://loinc.org"/>
          <code value="LA9633-4"/>
          <display value="Present"/>
        </coding>
      </valueCodeableConcept>
      <component>
        <code>
          <coding>
            <system value="http://loinc.org"/>
            <code value="62374-4"/>
            <display value="Human reference sequence assembly version"/>
          </coding>
        </code>
        <valueCodeableConcept>
          <coding>
            <system value="http://loinc.org"/>
            <code value="LA14029-5"/>
            <display value="GRCh37"/>
          </coding>
        </valueCodeableConcept>
      </component>
      <component>
        <code>
          <coding>
            <system value="http://loinc.org"/>
            <code value="48013-7"/>
            <display value="Genomic reference sequence ID"/>
          </coding>
        </code>
        <valueCodeableConcept>
          <coding>
            <system value="http://www.ncbi.nlm.nih.gov/nuccore"/>
            <code value="NC_000010.10"/>
          </coding>
        </valueCodeableConcept>
      </component>
      <component>
        <code>
          <coding>
            <system value="http://loinc.org"/>
            <code value="53034-5"/>
            <display value="Allelic state"/>
          </coding>
        </code>
        <valueCodeableConcept>
          <coding>
            <system value="http://loinc.org"/>
            <code value="LA6705-3"/>
            <display value="homozygous"/>
          </coding>
        </valueCodeableConcept>
      </component>
      <component>
        <code>
          <coding>
            <system value="http://loinc.org"/>
            <code value="69547-8"/>
            <display value="Genomic Ref allele"/>
          </coding>
        </code>
        <valueString value="G"/>
      </component>
      <component>
        <code>
          <coding>
            <system value="http://loinc.org"/>
            <code value="69551-0"/>
            <display value="Genomic Alt allele"/>
          </coding>
        </code>
        <valueString value="GA"/>
      </component>
      <component>
        <code>
          <coding>
            <system value="http://loinc.org"/>
            <code value="tbd-coordinate system"/>
            <display value="Genomic coordinate system"/>
          </coding>
        </code>
        <valueCodeableConcept>
          <coding>
            <system value="http://hl7.org/fhir/uv/genomics-reporting/CodeSystem/genetic-coordinate-system"/>
            <code value="1"/>
          </coding>
        </valueCodeableConcept>
      </component>
      <component>
        <code>
          <coding>
            <system value="http://loinc.org"/>
            <code value="81254-5"/>
            <display value="Genomic Allele start-end"/>
          </coding>
        </code>
        <valueRange>
          <low>
            <value value="96452172"/>
          </low>
        </valueRange>
      </component>
    </Observation>
  </contained>
  <contained>
    <Observation>
      <id value="dv-5c7fbf91e63d1"/>
      <meta>
        <profile value="http://hl7.org/fhir/uv/genomics-reporting/StructureDefinition/obs-described-variant"/>
      </meta>
      <status value="final"/>
      <category>
        <coding>
          <system value="http://terminology.hl7.org/CodeSystem/observation-category"/>
          <code value="laboratory"/>
        </coding>
      </category>
      <code>
        <coding>
          <system value="http://loinc.org"/>
          <code value="TBD-Described"/>
          <display value="Genetic variant assessment"/>
        </coding>
      </code>
      <subject>
        <reference value="Patient/NA19435"/>
      </subject>
      <issued value="2019-03-06T12:39:45+00:00"/>
      <valueCodeableConcept>
        <coding>
          <system value="http://loinc.org"/>
          <code value="LA9633-4"/>
          <display value="Present"/>
        </coding>
      </valueCodeableConcept>
      <component>
        <code>
          <coding>
            <system value="http://loinc.org"/>
            <code value="62374-4"/>
            <display value="Human reference sequence assembly version"/>
          </coding>
        </code>
        <valueCodeableConcept>
          <coding>
            <system value="http://loinc.org"/>
            <code value="LA14029-5"/>
            <display value="GRCh37"/>
          </coding>
        </valueCodeableConcept>
      </component>
      <component>
        <code>
          <coding>
            <system value="http://loinc.org"/>
            <code value="48013-7"/>
            <display value="Genomic reference sequence ID"/>
          </coding>
        </code>
        <valueCodeableConcept>
          <coding>
            <system value="http://www.ncbi.nlm.nih.gov/nuccore"/>
            <code value="NC_000010.10"/>
          </coding>
        </valueCodeableConcept>
      </component>
      <component>
        <code>
          <coding>
            <system value="http://loinc.org"/>
            <code value="53034-5"/>
            <display value="Allelic state"/>
          </coding>
        </code>
        <valueCodeableConcept>
          <coding>
            <system value="http://loinc.org"/>
            <code value="LA6705-3"/>
            <display value="homozygous"/>
          </coding>
        </valueCodeableConcept>
      </component>
      <component>
        <code>
          <coding>
            <system value="http://loinc.org"/>
            <code value="69547-8"/>
            <display value="Genomic Ref allele"/>
          </coding>
        </code>
        <valueString value="G"/>
      </component>
      <component>
        <code>
          <coding>
            <system value="http://loinc.org"/>
            <code value="69551-0"/>
            <display value="Genomic Alt allele"/>
          </coding>
        </code>
        <valueString value="A"/>
      </component>
      <component>
        <code>
          <coding>
            <system value="http://loinc.org"/>
            <code value="tbd-coordinate system"/>
            <display value="Genomic coordinate system"/>
          </coding>
        </code>
        <valueCodeableConcept>
          <coding>
            <system value="http://hl7.org/fhir/uv/genomics-reporting/CodeSystem/genetic-coordinate-system"/>
            <code value="1"/>
          </coding>
        </valueCodeableConcept>
      </component>
      <component>
        <code>
          <coding>
            <system value="http://loinc.org"/>
            <code value="81254-5"/>
            <display value="Genomic Allele start-end"/>
          </coding>
        </code>
        <valueRange>
          <low>
            <value value="96454241"/>
          </low>
        </valueRange>
      </component>
    </Observation>
  </contained>
  <contained>
    <Observation>
      <id value="dv-5c7fbf91e644e"/>
      <meta>
        <profile value="http://hl7.org/fhir/uv/genomics-reporting/StructureDefinition/obs-described-variant"/>
      </meta>
      <status value="final"/>
      <category>
        <coding>
          <system value="http://terminology.hl7.org/CodeSystem/observation-category"/>
          <code value="laboratory"/>
        </coding>
      </category>
      <code>
        <coding>
          <system value="http://loinc.org"/>
          <code value="TBD-Described"/>
          <display value="Genetic variant assessment"/>
        </coding>
      </code>
      <subject>
        <reference value="Patient/NA19435"/>
      </subject>
      <issued value="2019-03-06T12:39:45+00:00"/>
      <valueCodeableConcept>
        <coding>
          <system value="http://loinc.org"/>
          <code value="LA9633-4"/>
          <display value="Present"/>
        </coding>
      </valueCodeableConcept>
      <component>
        <code>
          <coding>
            <system value="http://loinc.org"/>
            <code value="62374-4"/>
            <display value="Human reference sequence assembly version"/>
          </coding>
        </code>
        <valueCodeableConcept>
          <coding>
            <system value="http://loinc.org"/>
            <code value="LA14029-5"/>
            <display value="GRCh37"/>
          </coding>
        </valueCodeableConcept>
      </component>
      <component>
        <code>
          <coding>
            <system value="http://loinc.org"/>
            <code value="48013-7"/>
            <display value="Genomic reference sequence ID"/>
          </coding>
        </code>
        <valueCodeableConcept>
          <coding>
            <system value="http://www.ncbi.nlm.nih.gov/nuccore"/>
            <code value="NC_000010.10"/>
          </coding>
        </valueCodeableConcept>
      </component>
      <component>
        <code>
          <coding>
            <system value="http://loinc.org"/>
            <code value="53034-5"/>
            <display value="Allelic state"/>
          </coding>
        </code>
        <valueCodeableConcept>
          <coding>
            <system value="http://loinc.org"/>
            <code value="LA6706-1"/>
            <display value="heterozygous"/>
          </coding>
        </valueCodeableConcept>
      </component>
      <component>
        <code>
          <coding>
            <system value="http://loinc.org"/>
            <code value="69547-8"/>
            <display value="Genomic Ref allele"/>
          </coding>
        </code>
        <valueString value="G"/>
      </component>
      <component>
        <code>
          <coding>
            <system value="http://loinc.org"/>
            <code value="69551-0"/>
            <display value="Genomic Alt allele"/>
          </coding>
        </code>
        <valueString value="A"/>
      </component>
      <component>
        <code>
          <coding>
            <system value="http://loinc.org"/>
            <code value="tbd-coordinate system"/>
            <display value="Genomic coordinate system"/>
          </coding>
        </code>
        <valueCodeableConcept>
          <coding>
            <system value="http://hl7.org/fhir/uv/genomics-reporting/CodeSystem/genetic-coordinate-system"/>
            <code value="1"/>
          </coding>
        </valueCodeableConcept>
      </component>
      <component>
        <code>
          <coding>
            <system value="http://loinc.org"/>
            <code value="81254-5"/>
            <display value="Genomic Allele start-end"/>
          </coding>
        </code>
        <valueRange>
          <low>
            <value value="96456946"/>
          </low>
        </valueRange>
      </component>
    </Observation>
  </contained>
  <contained>
    <Observation>
      <id value="dv-5c7fbf91e64c9"/>
      <meta>
        <profile value="http://hl7.org/fhir/uv/genomics-reporting/StructureDefinition/obs-described-variant"/>
      </meta>
      <status value="final"/>
      <category>
        <coding>
          <system value="http://terminology.hl7.org/CodeSystem/observation-category"/>
          <code value="laboratory"/>
        </coding>
      </category>
      <code>
        <coding>
          <system value="http://loinc.org"/>
          <code value="TBD-Described"/>
          <display value="Genetic variant assessment"/>
        </coding>
      </code>
      <subject>
        <reference value="Patient/NA19435"/>
      </subject>
      <issued value="2019-03-06T12:39:45+00:00"/>
      <valueCodeableConcept>
        <coding>
          <system value="http://loinc.org"/>
          <code value="LA9633-4"/>
          <display value="Present"/>
        </coding>
      </valueCodeableConcept>
      <component>
        <code>
          <coding>
            <system value="http://loinc.org"/>
            <code value="62374-4"/>
            <display value="Human reference sequence assembly version"/>
          </coding>
        </code>
        <valueCodeableConcept>
          <coding>
            <system value="http://loinc.org"/>
            <code value="LA14029-5"/>
            <display value="GRCh37"/>
          </coding>
        </valueCodeableConcept>
      </component>
      <component>
        <code>
          <coding>
            <system value="http://loinc.org"/>
            <code value="48013-7"/>
            <display value="Genomic reference sequence ID"/>
          </coding>
        </code>
        <valueCodeableConcept>
          <coding>
            <system value="http://www.ncbi.nlm.nih.gov/nuccore"/>
            <code value="NC_000010.10"/>
          </coding>
        </valueCodeableConcept>
      </component>
      <component>
        <code>
          <coding>
            <system value="http://loinc.org"/>
            <code value="53034-5"/>
            <display value="Allelic state"/>
          </coding>
        </code>
        <valueCodeableConcept>
          <coding>
            <system value="http://loinc.org"/>
            <code value="LA6706-1"/>
            <display value="heterozygous"/>
          </coding>
        </valueCodeableConcept>
      </component>
      <component>
        <code>
          <coding>
            <system value="http://loinc.org"/>
            <code value="69547-8"/>
            <display value="Genomic Ref allele"/>
          </coding>
        </code>
        <valueString value="GC"/>
      </component>
      <component>
        <code>
          <coding>
            <system value="http://loinc.org"/>
            <code value="69551-0"/>
            <display value="Genomic Alt allele"/>
          </coding>
        </code>
        <valueString value="G"/>
      </component>
      <component>
        <code>
          <coding>
            <system value="http://loinc.org"/>
            <code value="tbd-coordinate system"/>
            <display value="Genomic coordinate system"/>
          </coding>
        </code>
        <valueCodeableConcept>
          <coding>
            <system value="http://hl7.org/fhir/uv/genomics-reporting/CodeSystem/genetic-coordinate-system"/>
            <code value="1"/>
          </coding>
        </valueCodeableConcept>
      </component>
      <component>
        <code>
          <coding>
            <system value="http://loinc.org"/>
            <code value="81254-5"/>
            <display value="Genomic Allele start-end"/>
          </coding>
        </code>
        <valueRange>
          <low>
            <value value="96461310"/>
          </low>
        </valueRange>
      </component>
    </Observation>
  </contained>
  <contained>
    <Observation>
      <id value="dv-5c7fbf91e6543"/>
      <meta>
        <profile value="http://hl7.org/fhir/uv/genomics-reporting/StructureDefinition/obs-described-variant"/>
      </meta>
      <status value="final"/>
      <category>
        <coding>
          <system value="http://terminology.hl7.org/CodeSystem/observation-category"/>
          <code value="laboratory"/>
        </coding>
      </category>
      <code>
        <coding>
          <system value="http://loinc.org"/>
          <code value="TBD-Described"/>
          <display value="Genetic variant assessment"/>
        </coding>
      </code>
      <subject>
        <reference value="Patient/NA19435"/>
      </subject>
      <issued value="2019-03-06T12:39:45+00:00"/>
      <valueCodeableConcept>
        <coding>
          <system value="http://loinc.org"/>
          <code value="LA9633-4"/>
          <display value="Present"/>
        </coding>
      </valueCodeableConcept>
      <component>
        <code>
          <coding>
            <system value="http://loinc.org"/>
            <code value="62374-4"/>
            <display value="Human reference sequence assembly version"/>
          </coding>
        </code>
        <valueCodeableConcept>
          <coding>
            <system value="http://loinc.org"/>
            <code value="LA14029-5"/>
            <display value="GRCh37"/>
          </coding>
        </valueCodeableConcept>
      </component>
      <component>
        <code>
          <coding>
            <system value="http://loinc.org"/>
            <code value="48013-7"/>
            <display value="Genomic reference sequence ID"/>
          </coding>
        </code>
        <valueCodeableConcept>
          <coding>
            <system value="http://www.ncbi.nlm.nih.gov/nuccore"/>
            <code value="NC_000010.10"/>
          </coding>
        </valueCodeableConcept>
      </component>
      <component>
        <code>
          <coding>
            <system value="http://loinc.org"/>
            <code value="53034-5"/>
            <display value="Allelic state"/>
          </coding>
        </code>
        <valueCodeableConcept>
          <coding>
            <system value="http://loinc.org"/>
            <code value="LA6706-1"/>
            <display value="heterozygous"/>
          </coding>
        </valueCodeableConcept>
      </component>
      <component>
        <code>
          <coding>
            <system value="http://loinc.org"/>
            <code value="69547-8"/>
            <display value="Genomic Ref allele"/>
          </coding>
        </code>
        <valueString value="G"/>
      </component>
      <component>
        <code>
          <coding>
            <system value="http://loinc.org"/>
            <code value="69551-0"/>
            <display value="Genomic Alt allele"/>
          </coding>
        </code>
        <valueString value="A"/>
      </component>
      <component>
        <code>
          <coding>
            <system value="http://loinc.org"/>
            <code value="tbd-coordinate system"/>
            <display value="Genomic coordinate system"/>
          </coding>
        </code>
        <valueCodeableConcept>
          <coding>
            <system value="http://hl7.org/fhir/uv/genomics-reporting/CodeSystem/genetic-coordinate-system"/>
            <code value="1"/>
          </coding>
        </valueCodeableConcept>
      </component>
      <component>
        <code>
          <coding>
            <system value="http://loinc.org"/>
            <code value="81254-5"/>
            <display value="Genomic Allele start-end"/>
          </coding>
        </code>
        <valueRange>
          <low>
            <value value="96465797"/>
          </low>
        </valueRange>
      </component>
    </Observation>
  </contained>
  <contained>
    <Observation>
      <id value="dv-5c7fbf91e65bc"/>
      <meta>
        <profile value="http://hl7.org/fhir/uv/genomics-reporting/StructureDefinition/obs-described-variant"/>
      </meta>
      <status value="final"/>
      <category>
        <coding>
          <system value="http://terminology.hl7.org/CodeSystem/observation-category"/>
          <code value="laboratory"/>
        </coding>
      </category>
      <code>
        <coding>
          <system value="http://loinc.org"/>
          <code value="TBD-Described"/>
          <display value="Genetic variant assessment"/>
        </coding>
      </code>
      <subject>
        <reference value="Patient/NA19435"/>
      </subject>
      <issued value="2019-03-06T12:39:45+00:00"/>
      <valueCodeableConcept>
        <coding>
          <system value="http://loinc.org"/>
          <code value="LA9633-4"/>
          <display value="Present"/>
        </coding>
      </valueCodeableConcept>
      <component>
        <code>
          <coding>
            <system value="http://loinc.org"/>
            <code value="62374-4"/>
            <display value="Human reference sequence assembly version"/>
          </coding>
        </code>
        <valueCodeableConcept>
          <coding>
            <system value="http://loinc.org"/>
            <code value="LA14029-5"/>
            <display value="GRCh37"/>
          </coding>
        </valueCodeableConcept>
      </component>
      <component>
        <code>
          <coding>
            <system value="http://loinc.org"/>
            <code value="48013-7"/>
            <display value="Genomic reference sequence ID"/>
          </coding>
        </code>
        <valueCodeableConcept>
          <coding>
            <system value="http://www.ncbi.nlm.nih.gov/nuccore"/>
            <code value="NC_000010.10"/>
          </coding>
        </valueCodeableConcept>
      </component>
      <component>
        <code>
          <coding>
            <system value="http://loinc.org"/>
            <code value="53034-5"/>
            <display value="Allelic state"/>
          </coding>
        </code>
        <valueCodeableConcept>
          <coding>
            <system value="http://loinc.org"/>
            <code value="LA6706-1"/>
            <display value="heterozygous"/>
          </coding>
        </valueCodeableConcept>
      </component>
      <component>
        <code>
          <coding>
            <system value="http://loinc.org"/>
            <code value="69547-8"/>
            <display value="Genomic Ref allele"/>
          </coding>
        </code>
        <valueString value="A"/>
      </component>
      <component>
        <code>
          <coding>
            <system value="http://loinc.org"/>
            <code value="69551-0"/>
            <display value="Genomic Alt allele"/>
          </coding>
        </code>
        <valueString value="G"/>
      </component>
      <component>
        <code>
          <coding>
            <system value="http://loinc.org"/>
            <code value="tbd-coordinate system"/>
            <display value="Genomic coordinate system"/>
          </coding>
        </code>
        <valueCodeableConcept>
          <coding>
            <system value="http://hl7.org/fhir/uv/genomics-reporting/CodeSystem/genetic-coordinate-system"/>
            <code value="1"/>
          </coding>
        </valueCodeableConcept>
      </component>
      <component>
        <code>
          <coding>
            <system value="http://loinc.org"/>
            <code value="81254-5"/>
            <display value="Genomic Allele start-end"/>
          </coding>
        </code>
        <valueRange>
          <low>
            <value value="96468002"/>
          </low>
        </valueRange>
      </component>
    </Observation>
  </contained>
  <contained>
    <Observation>
      <id value="dv-5c7fbf91e6636"/>
      <meta>
        <profile value="http://hl7.org/fhir/uv/genomics-reporting/StructureDefinition/obs-described-variant"/>
      </meta>
      <status value="final"/>
      <category>
        <coding>
          <system value="http://terminology.hl7.org/CodeSystem/observation-category"/>
          <code value="laboratory"/>
        </coding>
      </category>
      <code>
        <coding>
          <system value="http://loinc.org"/>
          <code value="TBD-Described"/>
          <display value="Genetic variant assessment"/>
        </coding>
      </code>
      <subject>
        <reference value="Patient/NA19435"/>
      </subject>
      <issued value="2019-03-06T12:39:45+00:00"/>
      <valueCodeableConcept>
        <coding>
          <system value="http://loinc.org"/>
          <code value="LA9633-4"/>
          <display value="Present"/>
        </coding>
      </valueCodeableConcept>
      <component>
        <code>
          <coding>
            <system value="http://loinc.org"/>
            <code value="62374-4"/>
            <display value="Human reference sequence assembly version"/>
          </coding>
        </code>
        <valueCodeableConcept>
          <coding>
            <system value="http://loinc.org"/>
            <code value="LA14029-5"/>
            <display value="GRCh37"/>
          </coding>
        </valueCodeableConcept>
      </component>
      <component>
        <code>
          <coding>
            <system value="http://loinc.org"/>
            <code value="48013-7"/>
            <display value="Genomic reference sequence ID"/>
          </coding>
        </code>
        <valueCodeableConcept>
          <coding>
            <system value="http://www.ncbi.nlm.nih.gov/nuccore"/>
            <code value="NC_000010.10"/>
          </coding>
        </valueCodeableConcept>
      </component>
      <component>
        <code>
          <coding>
            <system value="http://loinc.org"/>
            <code value="53034-5"/>
            <display value="Allelic state"/>
          </coding>
        </code>
        <valueCodeableConcept>
          <coding>
            <system value="http://loinc.org"/>
            <code value="LA6705-3"/>
            <display value="homozygous"/>
          </coding>
        </valueCodeableConcept>
      </component>
      <component>
        <code>
          <coding>
            <system value="http://loinc.org"/>
            <code value="69547-8"/>
            <display value="Genomic Ref allele"/>
          </coding>
        </code>
        <valueString value="GT"/>
      </component>
      <component>
        <code>
          <coding>
            <system value="http://loinc.org"/>
            <code value="69551-0"/>
            <display value="Genomic Alt allele"/>
          </coding>
        </code>
        <valueString value="G"/>
      </component>
      <component>
        <code>
          <coding>
            <system value="http://loinc.org"/>
            <code value="tbd-coordinate system"/>
            <display value="Genomic coordinate system"/>
          </coding>
        </code>
        <valueCodeableConcept>
          <coding>
            <system value="http://hl7.org/fhir/uv/genomics-reporting/CodeSystem/genetic-coordinate-system"/>
            <code value="1"/>
          </coding>
        </valueCodeableConcept>
      </component>
      <component>
        <code>
          <coding>
            <system value="http://loinc.org"/>
            <code value="81254-5"/>
            <display value="Genomic Allele start-end"/>
          </coding>
        </code>
        <valueRange>
          <low>
            <value value="96484540"/>
          </low>
        </valueRange>
      </component>
    </Observation>
  </contained>
  <contained>
    <Observation>
      <id value="dv-5c7fbf91e66af"/>
      <meta>
        <profile value="http://hl7.org/fhir/uv/genomics-reporting/StructureDefinition/obs-described-variant"/>
      </meta>
      <status value="final"/>
      <category>
        <coding>
          <system value="http://terminology.hl7.org/CodeSystem/observation-category"/>
          <code value="laboratory"/>
        </coding>
      </category>
      <code>
        <coding>
          <system value="http://loinc.org"/>
          <code value="TBD-Described"/>
          <display value="Genetic variant assessment"/>
        </coding>
      </code>
      <subject>
        <reference value="Patient/NA19435"/>
      </subject>
      <issued value="2019-03-06T12:39:45+00:00"/>
      <valueCodeableConcept>
        <coding>
          <system value="http://loinc.org"/>
          <code value="LA9633-4"/>
          <display value="Present"/>
        </coding>
      </valueCodeableConcept>
      <component>
        <code>
          <coding>
            <system value="http://loinc.org"/>
            <code value="62374-4"/>
            <display value="Human reference sequence assembly version"/>
          </coding>
        </code>
        <valueCodeableConcept>
          <coding>
            <system value="http://loinc.org"/>
            <code value="LA14029-5"/>
            <display value="GRCh37"/>
          </coding>
        </valueCodeableConcept>
      </component>
      <component>
        <code>
          <coding>
            <system value="http://loinc.org"/>
            <code value="48013-7"/>
            <display value="Genomic reference sequence ID"/>
          </coding>
        </code>
        <valueCodeableConcept>
          <coding>
            <system value="http://www.ncbi.nlm.nih.gov/nuccore"/>
            <code value="NC_000010.10"/>
          </coding>
        </valueCodeableConcept>
      </component>
      <component>
        <code>
          <coding>
            <system value="http://loinc.org"/>
            <code value="53034-5"/>
            <display value="Allelic state"/>
          </coding>
        </code>
        <valueCodeableConcept>
          <coding>
            <system value="http://loinc.org"/>
            <code value="LA6706-1"/>
            <display value="heterozygous"/>
          </coding>
        </valueCodeableConcept>
      </component>
      <component>
        <code>
          <coding>
            <system value="http://loinc.org"/>
            <code value="69547-8"/>
            <display value="Genomic Ref allele"/>
          </coding>
        </code>
        <valueString value="A"/>
      </component>
      <component>
        <code>
          <coding>
            <system value="http://loinc.org"/>
            <code value="69551-0"/>
            <display value="Genomic Alt allele"/>
          </coding>
        </code>
        <valueString value="G"/>
      </component>
      <component>
        <code>
          <coding>
            <system value="http://loinc.org"/>
            <code value="tbd-coordinate system"/>
            <display value="Genomic coordinate system"/>
          </coding>
        </code>
        <valueCodeableConcept>
          <coding>
            <system value="http://hl7.org/fhir/uv/genomics-reporting/CodeSystem/genetic-coordinate-system"/>
            <code value="1"/>
          </coding>
        </valueCodeableConcept>
      </component>
      <component>
        <code>
          <coding>
            <system value="http://loinc.org"/>
            <code value="81254-5"/>
            <display value="Genomic Allele start-end"/>
          </coding>
        </code>
        <valueRange>
          <low>
            <value value="96485680"/>
          </low>
        </valueRange>
      </component>
    </Observation>
  </contained>
  <contained>
    <Observation>
      <id value="dv-5c7fbf91e6729"/>
      <meta>
        <profile value="http://hl7.org/fhir/uv/genomics-reporting/StructureDefinition/obs-described-variant"/>
      </meta>
      <status value="final"/>
      <category>
        <coding>
          <system value="http://terminology.hl7.org/CodeSystem/observation-category"/>
          <code value="laboratory"/>
        </coding>
      </category>
      <code>
        <coding>
          <system value="http://loinc.org"/>
          <code value="TBD-Described"/>
          <display value="Genetic variant assessment"/>
        </coding>
      </code>
      <subject>
        <reference value="Patient/NA19435"/>
      </subject>
      <issued value="2019-03-06T12:39:45+00:00"/>
      <valueCodeableConcept>
        <coding>
          <system value="http://loinc.org"/>
          <code value="LA9633-4"/>
          <display value="Present"/>
        </coding>
      </valueCodeableConcept>
      <component>
        <code>
          <coding>
            <system value="http://loinc.org"/>
            <code value="62374-4"/>
            <display value="Human reference sequence assembly version"/>
          </coding>
        </code>
        <valueCodeableConcept>
          <coding>
            <system value="http://loinc.org"/>
            <code value="LA14029-5"/>
            <display value="GRCh37"/>
          </coding>
        </valueCodeableConcept>
      </component>
      <component>
        <code>
          <coding>
            <system value="http://loinc.org"/>
            <code value="48013-7"/>
            <display value="Genomic reference sequence ID"/>
          </coding>
        </code>
        <valueCodeableConcept>
          <coding>
            <system value="http://www.ncbi.nlm.nih.gov/nuccore"/>
            <code value="NC_000010.10"/>
          </coding>
        </valueCodeableConcept>
      </component>
      <component>
        <code>
          <coding>
            <system value="http://loinc.org"/>
            <code value="53034-5"/>
            <display value="Allelic state"/>
          </coding>
        </code>
        <valueCodeableConcept>
          <coding>
            <system value="http://loinc.org"/>
            <code value="LA6706-1"/>
            <display value="heterozygous"/>
          </coding>
        </valueCodeableConcept>
      </component>
      <component>
        <code>
          <coding>
            <system value="http://loinc.org"/>
            <code value="69547-8"/>
            <display value="Genomic Ref allele"/>
          </coding>
        </code>
        <valueString value="C"/>
      </component>
      <component>
        <code>
          <coding>
            <system value="http://loinc.org"/>
            <code value="69551-0"/>
            <display value="Genomic Alt allele"/>
          </coding>
        </code>
        <valueString value="CT"/>
      </component>
      <component>
        <code>
          <coding>
            <system value="http://loinc.org"/>
            <code value="tbd-coordinate system"/>
            <display value="Genomic coordinate system"/>
          </coding>
        </code>
        <valueCodeableConcept>
          <coding>
            <system value="http://hl7.org/fhir/uv/genomics-reporting/CodeSystem/genetic-coordinate-system"/>
            <code value="1"/>
          </coding>
        </valueCodeableConcept>
      </component>
      <component>
        <code>
          <coding>
            <system value="http://loinc.org"/>
            <code value="81254-5"/>
            <display value="Genomic Allele start-end"/>
          </coding>
        </code>
        <valueRange>
          <low>
            <value value="96488496"/>
          </low>
        </valueRange>
      </component>
    </Observation>
  </contained>
  <contained>
    <Observation>
      <id value="dv-5c7fbf91e67a3"/>
      <meta>
        <profile value="http://hl7.org/fhir/uv/genomics-reporting/StructureDefinition/obs-described-variant"/>
      </meta>
      <status value="final"/>
      <category>
        <coding>
          <system value="http://terminology.hl7.org/CodeSystem/observation-category"/>
          <code value="laboratory"/>
        </coding>
      </category>
      <code>
        <coding>
          <system value="http://loinc.org"/>
          <code value="TBD-Described"/>
          <display value="Genetic variant assessment"/>
        </coding>
      </code>
      <subject>
        <reference value="Patient/NA19435"/>
      </subject>
      <issued value="2019-03-06T12:39:45+00:00"/>
      <valueCodeableConcept>
        <coding>
          <system value="http://loinc.org"/>
          <code value="LA9633-4"/>
          <display value="Present"/>
        </coding>
      </valueCodeableConcept>
      <component>
        <code>
          <coding>
            <system value="http://loinc.org"/>
            <code value="62374-4"/>
            <display value="Human reference sequence assembly version"/>
          </coding>
        </code>
        <valueCodeableConcept>
          <coding>
            <system value="http://loinc.org"/>
            <code value="LA14029-5"/>
            <display value="GRCh37"/>
          </coding>
        </valueCodeableConcept>
      </component>
      <component>
        <code>
          <coding>
            <system value="http://loinc.org"/>
            <code value="48013-7"/>
            <display value="Genomic reference sequence ID"/>
          </coding>
        </code>
        <valueCodeableConcept>
          <coding>
            <system value="http://www.ncbi.nlm.nih.gov/nuccore"/>
            <code value="NC_000010.10"/>
          </coding>
        </valueCodeableConcept>
      </component>
      <component>
        <code>
          <coding>
            <system value="http://loinc.org"/>
            <code value="53034-5"/>
            <display value="Allelic state"/>
          </coding>
        </code>
        <valueCodeableConcept>
          <coding>
            <system value="http://loinc.org"/>
            <code value="LA6706-1"/>
            <display value="heterozygous"/>
          </coding>
        </valueCodeableConcept>
      </component>
      <component>
        <code>
          <coding>
            <system value="http://loinc.org"/>
            <code value="69547-8"/>
            <display value="Genomic Ref allele"/>
          </coding>
        </code>
        <valueString value="G"/>
      </component>
      <component>
        <code>
          <coding>
            <system value="http://loinc.org"/>
            <code value="69551-0"/>
            <display value="Genomic Alt allele"/>
          </coding>
        </code>
        <valueString value="A"/>
      </component>
      <component>
        <code>
          <coding>
            <system value="http://loinc.org"/>
            <code value="tbd-coordinate system"/>
            <display value="Genomic coordinate system"/>
          </coding>
        </code>
        <valueCodeableConcept>
          <coding>
            <system value="http://hl7.org/fhir/uv/genomics-reporting/CodeSystem/genetic-coordinate-system"/>
            <code value="1"/>
          </coding>
        </valueCodeableConcept>
      </component>
      <component>
        <code>
          <coding>
            <system value="http://loinc.org"/>
            <code value="81254-5"/>
            <display value="Genomic Allele start-end"/>
          </coding>
        </code>
        <valueRange>
          <low>
            <value value="96498064"/>
          </low>
        </valueRange>
      </component>
    </Observation>
  </contained>
  <contained>
    <Observation>
      <id value="dv-5c7fbf91e6836"/>
      <meta>
        <profile value="http://hl7.org/fhir/uv/genomics-reporting/StructureDefinition/obs-described-variant"/>
      </meta>
      <status value="final"/>
      <category>
        <coding>
          <system value="http://terminology.hl7.org/CodeSystem/observation-category"/>
          <code value="laboratory"/>
        </coding>
      </category>
      <code>
        <coding>
          <system value="http://loinc.org"/>
          <code value="TBD-Described"/>
          <display value="Genetic variant assessment"/>
        </coding>
      </code>
      <subject>
        <reference value="Patient/NA19435"/>
      </subject>
      <issued value="2019-03-06T12:39:45+00:00"/>
      <valueCodeableConcept>
        <coding>
          <system value="http://loinc.org"/>
          <code value="LA9633-4"/>
          <display value="Present"/>
        </coding>
      </valueCodeableConcept>
      <component>
        <code>
          <coding>
            <system value="http://loinc.org"/>
            <code value="62374-4"/>
            <display value="Human reference sequence assembly version"/>
          </coding>
        </code>
        <valueCodeableConcept>
          <coding>
            <system value="http://loinc.org"/>
            <code value="LA14029-5"/>
            <display value="GRCh37"/>
          </coding>
        </valueCodeableConcept>
      </component>
      <component>
        <code>
          <coding>
            <system value="http://loinc.org"/>
            <code value="48013-7"/>
            <display value="Genomic reference sequence ID"/>
          </coding>
        </code>
        <valueCodeableConcept>
          <coding>
            <system value="http://www.ncbi.nlm.nih.gov/nuccore"/>
            <code value="NC_000010.10"/>
          </coding>
        </valueCodeableConcept>
      </component>
      <component>
        <code>
          <coding>
            <system value="http://loinc.org"/>
            <code value="53034-5"/>
            <display value="Allelic state"/>
          </coding>
        </code>
        <valueCodeableConcept>
          <coding>
            <system value="http://loinc.org"/>
            <code value="LA6706-1"/>
            <display value="heterozygous"/>
          </coding>
        </valueCodeableConcept>
      </component>
      <component>
        <code>
          <coding>
            <system value="http://loinc.org"/>
            <code value="69547-8"/>
            <display value="Genomic Ref allele"/>
          </coding>
        </code>
        <valueString value="A"/>
      </component>
      <component>
        <code>
          <coding>
            <system value="http://loinc.org"/>
            <code value="69551-0"/>
            <display value="Genomic Alt allele"/>
          </coding>
        </code>
        <valueString value="G"/>
      </component>
      <component>
        <code>
          <coding>
            <system value="http://loinc.org"/>
            <code value="tbd-coordinate system"/>
            <display value="Genomic coordinate system"/>
          </coding>
        </code>
        <valueCodeableConcept>
          <coding>
            <system value="http://hl7.org/fhir/uv/genomics-reporting/CodeSystem/genetic-coordinate-system"/>
            <code value="1"/>
          </coding>
        </valueCodeableConcept>
      </component>
      <component>
        <code>
          <coding>
            <system value="http://loinc.org"/>
            <code value="81254-5"/>
            <display value="Genomic Allele start-end"/>
          </coding>
        </code>
        <valueRange>
          <low>
            <value value="96506149"/>
          </low>
        </valueRange>
      </component>
    </Observation>
  </contained>
  <contained>
    <Observation>
      <id value="dv-5c7fbf91e68b1"/>
      <meta>
        <profile value="http://hl7.org/fhir/uv/genomics-reporting/StructureDefinition/obs-described-variant"/>
      </meta>
      <status value="final"/>
      <category>
        <coding>
          <system value="http://terminology.hl7.org/CodeSystem/observation-category"/>
          <code value="laboratory"/>
        </coding>
      </category>
      <code>
        <coding>
          <system value="http://loinc.org"/>
          <code value="TBD-Described"/>
          <display value="Genetic variant assessment"/>
        </coding>
      </code>
      <subject>
        <reference value="Patient/NA19435"/>
      </subject>
      <issued value="2019-03-06T12:39:45+00:00"/>
      <valueCodeableConcept>
        <coding>
          <system value="http://loinc.org"/>
          <code value="LA9633-4"/>
          <display value="Present"/>
        </coding>
      </valueCodeableConcept>
      <component>
        <code>
          <coding>
            <system value="http://loinc.org"/>
            <code value="62374-4"/>
            <display value="Human reference sequence assembly version"/>
          </coding>
        </code>
        <valueCodeableConcept>
          <coding>
            <system value="http://loinc.org"/>
            <code value="LA14029-5"/>
            <display value="GRCh37"/>
          </coding>
        </valueCodeableConcept>
      </component>
      <component>
        <code>
          <coding>
            <system value="http://loinc.org"/>
            <code value="48013-7"/>
            <display value="Genomic reference sequence ID"/>
          </coding>
        </code>
        <valueCodeableConcept>
          <coding>
            <system value="http://www.ncbi.nlm.nih.gov/nuccore"/>
            <code value="NC_000010.10"/>
          </coding>
        </valueCodeableConcept>
      </component>
      <component>
        <code>
          <coding>
            <system value="http://loinc.org"/>
            <code value="53034-5"/>
            <display value="Allelic state"/>
          </coding>
        </code>
        <valueCodeableConcept>
          <coding>
            <system value="http://loinc.org"/>
            <code value="LA6706-1"/>
            <display value="heterozygous"/>
          </coding>
        </valueCodeableConcept>
      </component>
      <component>
        <code>
          <coding>
            <system value="http://loinc.org"/>
            <code value="69547-8"/>
            <display value="Genomic Ref allele"/>
          </coding>
        </code>
        <valueString value="T"/>
      </component>
      <component>
        <code>
          <coding>
            <system value="http://loinc.org"/>
            <code value="69551-0"/>
            <display value="Genomic Alt allele"/>
          </coding>
        </code>
        <valueString value="TA"/>
      </component>
      <component>
        <code>
          <coding>
            <system value="http://loinc.org"/>
            <code value="tbd-coordinate system"/>
            <display value="Genomic coordinate system"/>
          </coding>
        </code>
        <valueCodeableConcept>
          <coding>
            <system value="http://hl7.org/fhir/uv/genomics-reporting/CodeSystem/genetic-coordinate-system"/>
            <code value="1"/>
          </coding>
        </valueCodeableConcept>
      </component>
      <component>
        <code>
          <coding>
            <system value="http://loinc.org"/>
            <code value="81254-5"/>
            <display value="Genomic Allele start-end"/>
          </coding>
        </code>
        <valueRange>
          <low>
            <value value="96512740"/>
          </low>
        </valueRange>
      </component>
    </Observation>
  </contained>
  <contained>
    <Observation>
      <id value="dv-5c7fbf91e692b"/>
      <meta>
        <profile value="http://hl7.org/fhir/uv/genomics-reporting/StructureDefinition/obs-described-variant"/>
      </meta>
      <status value="final"/>
      <category>
        <coding>
          <system value="http://terminology.hl7.org/CodeSystem/observation-category"/>
          <code value="laboratory"/>
        </coding>
      </category>
      <code>
        <coding>
          <system value="http://loinc.org"/>
          <code value="TBD-Described"/>
          <display value="Genetic variant assessment"/>
        </coding>
      </code>
      <subject>
        <reference value="Patient/NA19435"/>
      </subject>
      <issued value="2019-03-06T12:39:45+00:00"/>
      <valueCodeableConcept>
        <coding>
          <system value="http://loinc.org"/>
          <code value="LA9633-4"/>
          <display value="Present"/>
        </coding>
      </valueCodeableConcept>
      <component>
        <code>
          <coding>
            <system value="http://loinc.org"/>
            <code value="62374-4"/>
            <display value="Human reference sequence assembly version"/>
          </coding>
        </code>
        <valueCodeableConcept>
          <coding>
            <system value="http://loinc.org"/>
            <code value="LA14029-5"/>
            <display value="GRCh37"/>
          </coding>
        </valueCodeableConcept>
      </component>
      <component>
        <code>
          <coding>
            <system value="http://loinc.org"/>
            <code value="48013-7"/>
            <display value="Genomic reference sequence ID"/>
          </coding>
        </code>
        <valueCodeableConcept>
          <coding>
            <system value="http://www.ncbi.nlm.nih.gov/nuccore"/>
            <code value="NC_000010.10"/>
          </coding>
        </valueCodeableConcept>
      </component>
      <component>
        <code>
          <coding>
            <system value="http://loinc.org"/>
            <code value="53034-5"/>
            <display value="Allelic state"/>
          </coding>
        </code>
        <valueCodeableConcept>
          <coding>
            <system value="http://loinc.org"/>
            <code value="LA6706-1"/>
            <display value="heterozygous"/>
          </coding>
        </valueCodeableConcept>
      </component>
      <component>
        <code>
          <coding>
            <system value="http://loinc.org"/>
            <code value="69547-8"/>
            <display value="Genomic Ref allele"/>
          </coding>
        </code>
        <valueString value="C"/>
      </component>
      <component>
        <code>
          <coding>
            <system value="http://loinc.org"/>
            <code value="69551-0"/>
            <display value="Genomic Alt allele"/>
          </coding>
        </code>
        <valueString value="T"/>
      </component>
      <component>
        <code>
          <coding>
            <system value="http://loinc.org"/>
            <code value="tbd-coordinate system"/>
            <display value="Genomic coordinate system"/>
          </coding>
        </code>
        <valueCodeableConcept>
          <coding>
            <system value="http://hl7.org/fhir/uv/genomics-reporting/CodeSystem/genetic-coordinate-system"/>
            <code value="1"/>
          </coding>
        </valueCodeableConcept>
      </component>
      <component>
        <code>
          <coding>
            <system value="http://loinc.org"/>
            <code value="81254-5"/>
            <display value="Genomic Allele start-end"/>
          </coding>
        </code>
        <valueRange>
          <low>
            <value value="96518705"/>
          </low>
        </valueRange>
      </component>
    </Observation>
  </contained>
  <contained>
    <Observation>
      <id value="dv-5c7fbf91e69a5"/>
      <meta>
        <profile value="http://hl7.org/fhir/uv/genomics-reporting/StructureDefinition/obs-described-variant"/>
      </meta>
      <status value="final"/>
      <category>
        <coding>
          <system value="http://terminology.hl7.org/CodeSystem/observation-category"/>
          <code value="laboratory"/>
        </coding>
      </category>
      <code>
        <coding>
          <system value="http://loinc.org"/>
          <code value="TBD-Described"/>
          <display value="Genetic variant assessment"/>
        </coding>
      </code>
      <subject>
        <reference value="Patient/NA19435"/>
      </subject>
      <issued value="2019-03-06T12:39:45+00:00"/>
      <valueCodeableConcept>
        <coding>
          <system value="http://loinc.org"/>
          <code value="LA9633-4"/>
          <display value="Present"/>
        </coding>
      </valueCodeableConcept>
      <component>
        <code>
          <coding>
            <system value="http://loinc.org"/>
            <code value="62374-4"/>
            <display value="Human reference sequence assembly version"/>
          </coding>
        </code>
        <valueCodeableConcept>
          <coding>
            <system value="http://loinc.org"/>
            <code value="LA14029-5"/>
            <display value="GRCh37"/>
          </coding>
        </valueCodeableConcept>
      </component>
      <component>
        <code>
          <coding>
            <system value="http://loinc.org"/>
            <code value="48013-7"/>
            <display value="Genomic reference sequence ID"/>
          </coding>
        </code>
        <valueCodeableConcept>
          <coding>
            <system value="http://www.ncbi.nlm.nih.gov/nuccore"/>
            <code value="NC_000010.10"/>
          </coding>
        </valueCodeableConcept>
      </component>
      <component>
        <code>
          <coding>
            <system value="http://loinc.org"/>
            <code value="53034-5"/>
            <display value="Allelic state"/>
          </coding>
        </code>
        <valueCodeableConcept>
          <coding>
            <system value="http://loinc.org"/>
            <code value="LA6706-1"/>
            <display value="heterozygous"/>
          </coding>
        </valueCodeableConcept>
      </component>
      <component>
        <code>
          <coding>
            <system value="http://loinc.org"/>
            <code value="69547-8"/>
            <display value="Genomic Ref allele"/>
          </coding>
        </code>
        <valueString value="T"/>
      </component>
      <component>
        <code>
          <coding>
            <system value="http://loinc.org"/>
            <code value="69551-0"/>
            <display value="Genomic Alt allele"/>
          </coding>
        </code>
        <valueString value="C"/>
      </component>
      <component>
        <code>
          <coding>
            <system value="http://loinc.org"/>
            <code value="tbd-coordinate system"/>
            <display value="Genomic coordinate system"/>
          </coding>
        </code>
        <valueCodeableConcept>
          <coding>
            <system value="http://hl7.org/fhir/uv/genomics-reporting/CodeSystem/genetic-coordinate-system"/>
            <code value="1"/>
          </coding>
        </valueCodeableConcept>
      </component>
      <component>
        <code>
          <coding>
            <system value="http://loinc.org"/>
            <code value="81254-5"/>
            <display value="Genomic Allele start-end"/>
          </coding>
        </code>
        <valueRange>
          <low>
            <value value="96519874"/>
          </low>
        </valueRange>
      </component>
    </Observation>
  </contained>
  <contained>
    <Observation>
      <id value="dv-5c7fbf91e6a1e"/>
      <meta>
        <profile value="http://hl7.org/fhir/uv/genomics-reporting/StructureDefinition/obs-described-variant"/>
      </meta>
      <status value="final"/>
      <category>
        <coding>
          <system value="http://terminology.hl7.org/CodeSystem/observation-category"/>
          <code value="laboratory"/>
        </coding>
      </category>
      <code>
        <coding>
          <system value="http://loinc.org"/>
          <code value="TBD-Described"/>
          <display value="Genetic variant assessment"/>
        </coding>
      </code>
      <subject>
        <reference value="Patient/NA19435"/>
      </subject>
      <issued value="2019-03-06T12:39:45+00:00"/>
      <valueCodeableConcept>
        <coding>
          <system value="http://loinc.org"/>
          <code value="LA9633-4"/>
          <display value="Present"/>
        </coding>
      </valueCodeableConcept>
      <component>
        <code>
          <coding>
            <system value="http://loinc.org"/>
            <code value="62374-4"/>
            <display value="Human reference sequence assembly version"/>
          </coding>
        </code>
        <valueCodeableConcept>
          <coding>
            <system value="http://loinc.org"/>
            <code value="LA14029-5"/>
            <display value="GRCh37"/>
          </coding>
        </valueCodeableConcept>
      </component>
      <component>
        <code>
          <coding>
            <system value="http://loinc.org"/>
            <code value="48013-7"/>
            <display value="Genomic reference sequence ID"/>
          </coding>
        </code>
        <valueCodeableConcept>
          <coding>
            <system value="http://www.ncbi.nlm.nih.gov/nuccore"/>
            <code value="NC_000010.10"/>
          </coding>
        </valueCodeableConcept>
      </component>
      <component>
        <code>
          <coding>
            <system value="http://loinc.org"/>
            <code value="53034-5"/>
            <display value="Allelic state"/>
          </coding>
        </code>
        <valueCodeableConcept>
          <coding>
            <system value="http://loinc.org"/>
            <code value="LA6706-1"/>
            <display value="heterozygous"/>
          </coding>
        </valueCodeableConcept>
      </component>
      <component>
        <code>
          <coding>
            <system value="http://loinc.org"/>
            <code value="69547-8"/>
            <display value="Genomic Ref allele"/>
          </coding>
        </code>
        <valueString value="T"/>
      </component>
      <component>
        <code>
          <coding>
            <system value="http://loinc.org"/>
            <code value="69551-0"/>
            <display value="Genomic Alt allele"/>
          </coding>
        </code>
        <valueString value="TACTTTCC"/>
      </component>
      <component>
        <code>
          <coding>
            <system value="http://loinc.org"/>
            <code value="tbd-coordinate system"/>
            <display value="Genomic coordinate system"/>
          </coding>
        </code>
        <valueCodeableConcept>
          <coding>
            <system value="http://hl7.org/fhir/uv/genomics-reporting/CodeSystem/genetic-coordinate-system"/>
            <code value="1"/>
          </coding>
        </valueCodeableConcept>
      </component>
      <component>
        <code>
          <coding>
            <system value="http://loinc.org"/>
            <code value="81254-5"/>
            <display value="Genomic Allele start-end"/>
          </coding>
        </code>
        <valueRange>
          <low>
            <value value="96519946"/>
          </low>
        </valueRange>
      </component>
    </Observation>
  </contained>
  <contained>
    <Observation>
      <id value="dv-5c7fbf91e6a97"/>
      <meta>
        <profile value="http://hl7.org/fhir/uv/genomics-reporting/StructureDefinition/obs-described-variant"/>
      </meta>
      <status value="final"/>
      <category>
        <coding>
          <system value="http://terminology.hl7.org/CodeSystem/observation-category"/>
          <code value="laboratory"/>
        </coding>
      </category>
      <code>
        <coding>
          <system value="http://loinc.org"/>
          <code value="TBD-Described"/>
          <display value="Genetic variant assessment"/>
        </coding>
      </code>
      <subject>
        <reference value="Patient/NA19435"/>
      </subject>
      <issued value="2019-03-06T12:39:45+00:00"/>
      <valueCodeableConcept>
        <coding>
          <system value="http://loinc.org"/>
          <code value="LA9633-4"/>
          <display value="Present"/>
        </coding>
      </valueCodeableConcept>
      <component>
        <code>
          <coding>
            <system value="http://loinc.org"/>
            <code value="62374-4"/>
            <display value="Human reference sequence assembly version"/>
          </coding>
        </code>
        <valueCodeableConcept>
          <coding>
            <system value="http://loinc.org"/>
            <code value="LA14029-5"/>
            <display value="GRCh37"/>
          </coding>
        </valueCodeableConcept>
      </component>
      <component>
        <code>
          <coding>
            <system value="http://loinc.org"/>
            <code value="48013-7"/>
            <display value="Genomic reference sequence ID"/>
          </coding>
        </code>
        <valueCodeableConcept>
          <coding>
            <system value="http://www.ncbi.nlm.nih.gov/nuccore"/>
            <code value="NC_000010.10"/>
          </coding>
        </valueCodeableConcept>
      </component>
      <component>
        <code>
          <coding>
            <system value="http://loinc.org"/>
            <code value="53034-5"/>
            <display value="Allelic state"/>
          </coding>
        </code>
        <valueCodeableConcept>
          <coding>
            <system value="http://loinc.org"/>
            <code value="LA6706-1"/>
            <display value="heterozygous"/>
          </coding>
        </valueCodeableConcept>
      </component>
      <component>
        <code>
          <coding>
            <system value="http://loinc.org"/>
            <code value="69547-8"/>
            <display value="Genomic Ref allele"/>
          </coding>
        </code>
        <valueString value="A"/>
      </component>
      <component>
        <code>
          <coding>
            <system value="http://loinc.org"/>
            <code value="69551-0"/>
            <display value="Genomic Alt allele"/>
          </coding>
        </code>
        <valueString value="G"/>
      </component>
      <component>
        <code>
          <coding>
            <system value="http://loinc.org"/>
            <code value="tbd-coordinate system"/>
            <display value="Genomic coordinate system"/>
          </coding>
        </code>
        <valueCodeableConcept>
          <coding>
            <system value="http://hl7.org/fhir/uv/genomics-reporting/CodeSystem/genetic-coordinate-system"/>
            <code value="1"/>
          </coding>
        </valueCodeableConcept>
      </component>
      <component>
        <code>
          <coding>
            <system value="http://loinc.org"/>
            <code value="81254-5"/>
            <display value="Genomic Allele start-end"/>
          </coding>
        </code>
        <valueRange>
          <low>
            <value value="96529912"/>
          </low>
        </valueRange>
      </component>
    </Observation>
  </contained>
  <contained>
    <Observation>
      <id value="dv-5c7fbf91e6b10"/>
      <meta>
        <profile value="http://hl7.org/fhir/uv/genomics-reporting/StructureDefinition/obs-described-variant"/>
      </meta>
      <status value="final"/>
      <category>
        <coding>
          <system value="http://terminology.hl7.org/CodeSystem/observation-category"/>
          <code value="laboratory"/>
        </coding>
      </category>
      <code>
        <coding>
          <system value="http://loinc.org"/>
          <code value="TBD-Described"/>
          <display value="Genetic variant assessment"/>
        </coding>
      </code>
      <subject>
        <reference value="Patient/NA19435"/>
      </subject>
      <issued value="2019-03-06T12:39:45+00:00"/>
      <valueCodeableConcept>
        <coding>
          <system value="http://loinc.org"/>
          <code value="LA9633-4"/>
          <display value="Present"/>
        </coding>
      </valueCodeableConcept>
      <component>
        <code>
          <coding>
            <system value="http://loinc.org"/>
            <code value="62374-4"/>
            <display value="Human reference sequence assembly version"/>
          </coding>
        </code>
        <valueCodeableConcept>
          <coding>
            <system value="http://loinc.org"/>
            <code value="LA14029-5"/>
            <display value="GRCh37"/>
          </coding>
        </valueCodeableConcept>
      </component>
      <component>
        <code>
          <coding>
            <system value="http://loinc.org"/>
            <code value="48013-7"/>
            <display value="Genomic reference sequence ID"/>
          </coding>
        </code>
        <valueCodeableConcept>
          <coding>
            <system value="http://www.ncbi.nlm.nih.gov/nuccore"/>
            <code value="NC_000010.10"/>
          </coding>
        </valueCodeableConcept>
      </component>
      <component>
        <code>
          <coding>
            <system value="http://loinc.org"/>
            <code value="53034-5"/>
            <display value="Allelic state"/>
          </coding>
        </code>
        <valueCodeableConcept>
          <coding>
            <system value="http://loinc.org"/>
            <code value="LA6706-1"/>
            <display value="heterozygous"/>
          </coding>
        </valueCodeableConcept>
      </component>
      <component>
        <code>
          <coding>
            <system value="http://loinc.org"/>
            <code value="69547-8"/>
            <display value="Genomic Ref allele"/>
          </coding>
        </code>
        <valueString value="TG"/>
      </component>
      <component>
        <code>
          <coding>
            <system value="http://loinc.org"/>
            <code value="69551-0"/>
            <display value="Genomic Alt allele"/>
          </coding>
        </code>
        <valueString value="CA"/>
      </component>
      <component>
        <code>
          <coding>
            <system value="http://loinc.org"/>
            <code value="tbd-coordinate system"/>
            <display value="Genomic coordinate system"/>
          </coding>
        </code>
        <valueCodeableConcept>
          <coding>
            <system value="http://hl7.org/fhir/uv/genomics-reporting/CodeSystem/genetic-coordinate-system"/>
            <code value="1"/>
          </coding>
        </valueCodeableConcept>
      </component>
      <component>
        <code>
          <coding>
            <system value="http://loinc.org"/>
            <code value="81254-5"/>
            <display value="Genomic Allele start-end"/>
          </coding>
        </code>
        <valueRange>
          <low>
            <value value="96533087"/>
          </low>
        </valueRange>
      </component>
    </Observation>
  </contained>
  <contained>
    <Observation>
      <id value="dv-5c7fbf91e6b89"/>
      <meta>
        <profile value="http://hl7.org/fhir/uv/genomics-reporting/StructureDefinition/obs-described-variant"/>
      </meta>
      <status value="final"/>
      <category>
        <coding>
          <system value="http://terminology.hl7.org/CodeSystem/observation-category"/>
          <code value="laboratory"/>
        </coding>
      </category>
      <code>
        <coding>
          <system value="http://loinc.org"/>
          <code value="TBD-Described"/>
          <display value="Genetic variant assessment"/>
        </coding>
      </code>
      <subject>
        <reference value="Patient/NA19435"/>
      </subject>
      <issued value="2019-03-06T12:39:45+00:00"/>
      <valueCodeableConcept>
        <coding>
          <system value="http://loinc.org"/>
          <code value="LA9633-4"/>
          <display value="Present"/>
        </coding>
      </valueCodeableConcept>
      <component>
        <code>
          <coding>
            <system value="http://loinc.org"/>
            <code value="62374-4"/>
            <display value="Human reference sequence assembly version"/>
          </coding>
        </code>
        <valueCodeableConcept>
          <coding>
            <system value="http://loinc.org"/>
            <code value="LA14029-5"/>
            <display value="GRCh37"/>
          </coding>
        </valueCodeableConcept>
      </component>
      <component>
        <code>
          <coding>
            <system value="http://loinc.org"/>
            <code value="48013-7"/>
            <display value="Genomic reference sequence ID"/>
          </coding>
        </code>
        <valueCodeableConcept>
          <coding>
            <system value="http://www.ncbi.nlm.nih.gov/nuccore"/>
            <code value="NC_000010.10"/>
          </coding>
        </valueCodeableConcept>
      </component>
      <component>
        <code>
          <coding>
            <system value="http://loinc.org"/>
            <code value="53034-5"/>
            <display value="Allelic state"/>
          </coding>
        </code>
        <valueCodeableConcept>
          <coding>
            <system value="http://loinc.org"/>
            <code value="LA6706-1"/>
            <display value="heterozygous"/>
          </coding>
        </valueCodeableConcept>
      </component>
      <component>
        <code>
          <coding>
            <system value="http://loinc.org"/>
            <code value="69547-8"/>
            <display value="Genomic Ref allele"/>
          </coding>
        </code>
        <valueString value="T"/>
      </component>
      <component>
        <code>
          <coding>
            <system value="http://loinc.org"/>
            <code value="69551-0"/>
            <display value="Genomic Alt allele"/>
          </coding>
        </code>
        <valueString value="A"/>
      </component>
      <component>
        <code>
          <coding>
            <system value="http://loinc.org"/>
            <code value="tbd-coordinate system"/>
            <display value="Genomic coordinate system"/>
          </coding>
        </code>
        <valueCodeableConcept>
          <coding>
            <system value="http://hl7.org/fhir/uv/genomics-reporting/CodeSystem/genetic-coordinate-system"/>
            <code value="1"/>
          </coding>
        </valueCodeableConcept>
      </component>
      <component>
        <code>
          <coding>
            <system value="http://loinc.org"/>
            <code value="81254-5"/>
            <display value="Genomic Allele start-end"/>
          </coding>
        </code>
        <valueRange>
          <low>
            <value value="96538997"/>
          </low>
        </valueRange>
      </component>
    </Observation>
  </contained>
  <contained>
    <Observation>
      <id value="dv-5c7fbf91e6c02"/>
      <meta>
        <profile value="http://hl7.org/fhir/uv/genomics-reporting/StructureDefinition/obs-described-variant"/>
      </meta>
      <status value="final"/>
      <category>
        <coding>
          <system value="http://terminology.hl7.org/CodeSystem/observation-category"/>
          <code value="laboratory"/>
        </coding>
      </category>
      <code>
        <coding>
          <system value="http://loinc.org"/>
          <code value="TBD-Described"/>
          <display value="Genetic variant assessment"/>
        </coding>
      </code>
      <subject>
        <reference value="Patient/NA19435"/>
      </subject>
      <issued value="2019-03-06T12:39:45+00:00"/>
      <valueCodeableConcept>
        <coding>
          <system value="http://loinc.org"/>
          <code value="LA9633-4"/>
          <display value="Present"/>
        </coding>
      </valueCodeableConcept>
      <component>
        <code>
          <coding>
            <system value="http://loinc.org"/>
            <code value="62374-4"/>
            <display value="Human reference sequence assembly version"/>
          </coding>
        </code>
        <valueCodeableConcept>
          <coding>
            <system value="http://loinc.org"/>
            <code value="LA14029-5"/>
            <display value="GRCh37"/>
          </coding>
        </valueCodeableConcept>
      </component>
      <component>
        <code>
          <coding>
            <system value="http://loinc.org"/>
            <code value="48013-7"/>
            <display value="Genomic reference sequence ID"/>
          </coding>
        </code>
        <valueCodeableConcept>
          <coding>
            <system value="http://www.ncbi.nlm.nih.gov/nuccore"/>
            <code value="NC_000010.10"/>
          </coding>
        </valueCodeableConcept>
      </component>
      <component>
        <code>
          <coding>
            <system value="http://loinc.org"/>
            <code value="53034-5"/>
            <display value="Allelic state"/>
          </coding>
        </code>
        <valueCodeableConcept>
          <coding>
            <system value="http://loinc.org"/>
            <code value="LA6706-1"/>
            <display value="heterozygous"/>
          </coding>
        </valueCodeableConcept>
      </component>
      <component>
        <code>
          <coding>
            <system value="http://loinc.org"/>
            <code value="69547-8"/>
            <display value="Genomic Ref allele"/>
          </coding>
        </code>
        <valueString value="TTA"/>
      </component>
      <component>
        <code>
          <coding>
            <system value="http://loinc.org"/>
            <code value="69551-0"/>
            <display value="Genomic Alt allele"/>
          </coding>
        </code>
        <valueString value="ATT"/>
      </component>
      <component>
        <code>
          <coding>
            <system value="http://loinc.org"/>
            <code value="tbd-coordinate system"/>
            <display value="Genomic coordinate system"/>
          </coding>
        </code>
        <valueCodeableConcept>
          <coding>
            <system value="http://hl7.org/fhir/uv/genomics-reporting/CodeSystem/genetic-coordinate-system"/>
            <code value="1"/>
          </coding>
        </valueCodeableConcept>
      </component>
      <component>
        <code>
          <coding>
            <system value="http://loinc.org"/>
            <code value="81254-5"/>
            <display value="Genomic Allele start-end"/>
          </coding>
        </code>
        <valueRange>
          <low>
            <value value="96539039"/>
          </low>
        </valueRange>
      </component>
    </Observation>
  </contained>
  <status value="final"/>
  <code>
    <coding>
      <system value="http://loinc.org"/>
      <code value="51969-4"/>
    </coding>
    <text value="Genetic analysis report"/>
  </code>
  <subject>
    <reference value="Patient/NA19435"/>
  </subject>
  <result>
    <reference value="#rs-5c7fbf91e62a4"/>
  </result>
  <result>
    <reference value="#dv-5c7fbf91e6345"/>
  </result>
  <result>
    <reference value="#dv-5c7fbf91e63d1"/>
  </result>
  <result>
    <reference value="#dv-5c7fbf91e644e"/>
  </result>
  <result>
    <reference value="#dv-5c7fbf91e64c9"/>
  </result>
  <result>
    <reference value="#dv-5c7fbf91e6543"/>
  </result>
  <result>
    <reference value="#dv-5c7fbf91e65bc"/>
  </result>
  <result>
    <reference value="#dv-5c7fbf91e6636"/>
  </result>
  <result>
    <reference value="#dv-5c7fbf91e66af"/>
  </result>
  <result>
    <reference value="#dv-5c7fbf91e6729"/>
  </result>
  <result>
    <reference value="#dv-5c7fbf91e67a3"/>
  </result>
  <result>
    <reference value="#dv-5c7fbf91e6836"/>
  </result>
  <result>
    <reference value="#dv-5c7fbf91e68b1"/>
  </result>
  <result>
    <reference value="#dv-5c7fbf91e692b"/>
  </result>
  <result>
    <reference value="#dv-5c7fbf91e69a5"/>
  </result>
  <result>
    <reference value="#dv-5c7fbf91e6a1e"/>
  </result>
  <result>
    <reference value="#dv-5c7fbf91e6a97"/>
  </result>
  <result>
    <reference value="#dv-5c7fbf91e6b10"/>
  </result>
  <result>
    <reference value="#dv-5c7fbf91e6b89"/>
  </result>
  <result>
    <reference value="#dv-5c7fbf91e6c02"/>
  </result>
</DiagnosticReport>