<?xml version="1.0" encoding="utf-8"?>
<DiagnosticReport xmlns="http://hl7.org/fhir">
  <id value="dr-5c7fc0898d9bb"/>
  <meta>
    <profile value="http://hl7.org/fhir/uv/genomics-reporting/StructureDefinition/diagnosticreport"/>
  </meta>
  <contained>
    <Observation>
      <id value="rs-5c7fc0898d924"/>
      <meta>
        <profile value="http://hl7.org/fhir/uv/genomics-reporting/StructureDefinition/obs-region-studied"/>
      </meta>
      <status value="final"/>
      <category>
        <coding>
          <system value="http://terminology.hl7.org/CodeSystem/observation-category"/>
          <code value="laboratory"/>
        </coding>
      </category>
      <code>
        <coding>
          <system value="http://loinc.org"/>
          <code value="TBD-RegionsStudied"/>
          <display value="Region studied"/>
        </coding>
      </code>
      <subject>
        <reference value="Patient/NA19435"/>
      </subject>
      <issued value="2019-03-06T12:43:53+00:00"/>
      <valueCodeableConcept>
        <coding>
          <system value="http://loinc.org"/>
          <code value="LA9633-4"/>
          <display value="Present"/>
        </coding>
      </valueCodeableConcept>
      <component>
        <code>
          <coding>
            <system value="http://loinc.org"/>
            <code value="48018-6"/>
            <display value="Gene studied ID"/>
          </coding>
        </code>
        <valueCodeableConcept>
          <coding>
            <system value="http://www.genenames.org"/>
            <code value="HGNC:2625"/>
            <display value="CYP2D6"/>
          </coding>
        </valueCodeableConcept>
      </component>
    </Observation>
  </contained>
  <contained>
    <Observation>
      <id value="dv-5c7fc0898da2f"/>
      <meta>
        <profile value="http://hl7.org/fhir/uv/genomics-reporting/StructureDefinition/obs-described-variant"/>
      </meta>
      <status value="final"/>
      <category>
        <coding>
          <system value="http://terminology.hl7.org/CodeSystem/observation-category"/>
          <code value="laboratory"/>
        </coding>
      </category>
      <code>
        <coding>
          <system value="http://loinc.org"/>
          <code value="TBD-Described"/>
          <display value="Genetic variant assessment"/>
        </coding>
      </code>
      <subject>
        <reference value="Patient/NA19435"/>
      </subject>
      <issued value="2019-03-06T12:43:53+00:00"/>
      <valueCodeableConcept>
        <coding>
          <system value="http://loinc.org"/>
          <code value="LA9633-4"/>
          <display value="Present"/>
        </coding>
      </valueCodeableConcept>
      <component>
        <code>
          <coding>
            <system value="http://loinc.org"/>
            <code value="62374-4"/>
            <display value="Human reference sequence assembly version"/>
          </coding>
        </code>
        <valueCodeableConcept>
          <coding>
            <system value="http://loinc.org"/>
            <code value="LA14029-5"/>
            <display value="GRCh37"/>
          </coding>
        </valueCodeableConcept>
      </component>
      <component>
        <code>
          <coding>
            <system value="http://loinc.org"/>
            <code value="48013-7"/>
            <display value="Genomic reference sequence ID"/>
          </coding>
        </code>
        <valueCodeableConcept>
          <coding>
            <system value="http://www.ncbi.nlm.nih.gov/nuccore"/>
            <code value="NC_000022.10"/>
          </coding>
        </valueCodeableConcept>
      </component>
      <component>
        <code>
          <coding>
            <system value="http://loinc.org"/>
            <code value="53034-5"/>
            <display value="Allelic state"/>
          </coding>
        </code>
        <valueCodeableConcept>
          <coding>
            <system value="http://loinc.org"/>
            <code value="LA6706-1"/>
            <display value="heterozygous"/>
          </coding>
        </valueCodeableConcept>
      </component>
      <component>
        <code>
          <coding>
            <system value="http://loinc.org"/>
            <code value="69547-8"/>
            <display value="Genomic Ref allele"/>
          </coding>
        </code>
        <valueString value="G"/>
      </component>
      <component>
        <code>
          <coding>
            <system value="http://loinc.org"/>
            <code value="69551-0"/>
            <display value="Genomic Alt allele"/>
          </coding>
        </code>
        <valueString value="C"/>
      </component>
      <component>
        <code>
          <coding>
            <system value="http://loinc.org"/>
            <code value="tbd-coordinate system"/>
            <display value="Genomic coordinate system"/>
          </coding>
        </code>
        <valueCodeableConcept>
          <coding>
            <system value="http://hl7.org/fhir/uv/genomics-reporting/CodeSystem/genetic-coordinate-system"/>
            <code value="1"/>
          </coding>
        </valueCodeableConcept>
      </component>
      <component>
        <code>
          <coding>
            <system value="http://loinc.org"/>
            <code value="81254-5"/>
            <display value="Genomic Allele start-end"/>
          </coding>
        </code>
        <valueRange>
          <low>
            <value value="42522613"/>
          </low>
        </valueRange>
      </component>
    </Observation>
  </contained>
  <contained>
    <Observation>
      <id value="dv-5c7fc0898db2e"/>
      <meta>
        <profile value="http://hl7.org/fhir/uv/genomics-reporting/StructureDefinition/obs-described-variant"/>
      </meta>
      <status value="final"/>
      <category>
        <coding>
          <system value="http://terminology.hl7.org/CodeSystem/observation-category"/>
          <code value="laboratory"/>
        </coding>
      </category>
      <code>
        <coding>
          <system value="http://loinc.org"/>
          <code value="TBD-Described"/>
          <display value="Genetic variant assessment"/>
        </coding>
      </code>
      <subject>
        <reference value="Patient/NA19435"/>
      </subject>
      <issued value="2019-03-06T12:43:53+00:00"/>
      <valueCodeableConcept>
        <coding>
          <system value="http://loinc.org"/>
          <code value="LA9633-4"/>
          <display value="Present"/>
        </coding>
      </valueCodeableConcept>
      <component>
        <code>
          <coding>
            <system value="http://loinc.org"/>
            <code value="62374-4"/>
            <display value="Human reference sequence assembly version"/>
          </coding>
        </code>
        <valueCodeableConcept>
          <coding>
            <system value="http://loinc.org"/>
            <code value="LA14029-5"/>
            <display value="GRCh37"/>
          </coding>
        </valueCodeableConcept>
      </component>
      <component>
        <code>
          <coding>
            <system value="http://loinc.org"/>
            <code value="48013-7"/>
            <display value="Genomic reference sequence ID"/>
          </coding>
        </code>
        <valueCodeableConcept>
          <coding>
            <system value="http://www.ncbi.nlm.nih.gov/nuccore"/>
            <code value="NC_000022.10"/>
          </coding>
        </valueCodeableConcept>
      </component>
      <component>
        <code>
          <coding>
            <system value="http://loinc.org"/>
            <code value="53034-5"/>
            <display value="Allelic state"/>
          </coding>
        </code>
        <valueCodeableConcept>
          <coding>
            <system value="http://loinc.org"/>
            <code value="LA6706-1"/>
            <display value="heterozygous"/>
          </coding>
        </valueCodeableConcept>
      </component>
      <component>
        <code>
          <coding>
            <system value="http://loinc.org"/>
            <code value="69547-8"/>
            <display value="Genomic Ref allele"/>
          </coding>
        </code>
        <valueString value="A"/>
      </component>
      <component>
        <code>
          <coding>
            <system value="http://loinc.org"/>
            <code value="69551-0"/>
            <display value="Genomic Alt allele"/>
          </coding>
        </code>
        <valueString value="G"/>
      </component>
      <component>
        <code>
          <coding>
            <system value="http://loinc.org"/>
            <code value="tbd-coordinate system"/>
            <display value="Genomic coordinate system"/>
          </coding>
        </code>
        <valueCodeableConcept>
          <coding>
            <system value="http://hl7.org/fhir/uv/genomics-reporting/CodeSystem/genetic-coordinate-system"/>
            <code value="1"/>
          </coding>
        </valueCodeableConcept>
      </component>
      <component>
        <code>
          <coding>
            <system value="http://loinc.org"/>
            <code value="81254-5"/>
            <display value="Genomic Allele start-end"/>
          </coding>
        </code>
        <valueRange>
          <low>
            <value value="42523003"/>
          </low>
        </valueRange>
      </component>
    </Observation>
  </contained>
  <contained>
    <Observation>
      <id value="dv-5c7fc0898dc11"/>
      <meta>
        <profile value="http://hl7.org/fhir/uv/genomics-reporting/StructureDefinition/obs-described-variant"/>
      </meta>
      <status value="final"/>
      <category>
        <coding>
          <system value="http://terminology.hl7.org/CodeSystem/observation-category"/>
          <code value="laboratory"/>
        </coding>
      </category>
      <code>
        <coding>
          <system value="http://loinc.org"/>
          <code value="TBD-Described"/>
          <display value="Genetic variant assessment"/>
        </coding>
      </code>
      <subject>
        <reference value="Patient/NA19435"/>
      </subject>
      <issued value="2019-03-06T12:43:53+00:00"/>
      <valueCodeableConcept>
        <coding>
          <system value="http://loinc.org"/>
          <code value="LA9633-4"/>
          <display value="Present"/>
        </coding>
      </valueCodeableConcept>
      <component>
        <code>
          <coding>
            <system value="http://loinc.org"/>
            <code value="62374-4"/>
            <display value="Human reference sequence assembly version"/>
          </coding>
        </code>
        <valueCodeableConcept>
          <coding>
            <system value="http://loinc.org"/>
            <code value="LA14029-5"/>
            <display value="GRCh37"/>
          </coding>
        </valueCodeableConcept>
      </component>
      <component>
        <code>
          <coding>
            <system value="http://loinc.org"/>
            <code value="48013-7"/>
            <display value="Genomic reference sequence ID"/>
          </coding>
        </code>
        <valueCodeableConcept>
          <coding>
            <system value="http://www.ncbi.nlm.nih.gov/nuccore"/>
            <code value="NC_000022.10"/>
          </coding>
        </valueCodeableConcept>
      </component>
      <component>
        <code>
          <coding>
            <system value="http://loinc.org"/>
            <code value="53034-5"/>
            <display value="Allelic state"/>
          </coding>
        </code>
        <valueCodeableConcept>
          <coding>
            <system value="http://loinc.org"/>
            <code value="LA6706-1"/>
            <display value="heterozygous"/>
          </coding>
        </valueCodeableConcept>
      </component>
      <component>
        <code>
          <coding>
            <system value="http://loinc.org"/>
            <code value="69547-8"/>
            <display value="Genomic Ref allele"/>
          </coding>
        </code>
        <valueString value="T"/>
      </component>
      <component>
        <code>
          <coding>
            <system value="http://loinc.org"/>
            <code value="69551-0"/>
            <display value="Genomic Alt allele"/>
          </coding>
        </code>
        <valueString value="C"/>
      </component>
      <component>
        <code>
          <coding>
            <system value="http://loinc.org"/>
            <code value="tbd-coordinate system"/>
            <display value="Genomic coordinate system"/>
          </coding>
        </code>
        <valueCodeableConcept>
          <coding>
            <system value="http://hl7.org/fhir/uv/genomics-reporting/CodeSystem/genetic-coordinate-system"/>
            <code value="1"/>
          </coding>
        </valueCodeableConcept>
      </component>
      <component>
        <code>
          <coding>
            <system value="http://loinc.org"/>
            <code value="81254-5"/>
            <display value="Genomic Allele start-end"/>
          </coding>
        </code>
        <valueRange>
          <low>
            <value value="42523209"/>
          </low>
        </valueRange>
      </component>
    </Observation>
  </contained>
  <contained>
    <Observation>
      <id value="dv-5c7fc0898dced"/>
      <meta>
        <profile value="http://hl7.org/fhir/uv/genomics-reporting/StructureDefinition/obs-described-variant"/>
      </meta>
      <status value="final"/>
      <category>
        <coding>
          <system value="http://terminology.hl7.org/CodeSystem/observation-category"/>
          <code value="laboratory"/>
        </coding>
      </category>
      <code>
        <coding>
          <system value="http://loinc.org"/>
          <code value="TBD-Described"/>
          <display value="Genetic variant assessment"/>
        </coding>
      </code>
      <subject>
        <reference value="Patient/NA19435"/>
      </subject>
      <issued value="2019-03-06T12:43:53+00:00"/>
      <valueCodeableConcept>
        <coding>
          <system value="http://loinc.org"/>
          <code value="LA9633-4"/>
          <display value="Present"/>
        </coding>
      </valueCodeableConcept>
      <component>
        <code>
          <coding>
            <system value="http://loinc.org"/>
            <code value="62374-4"/>
            <display value="Human reference sequence assembly version"/>
          </coding>
        </code>
        <valueCodeableConcept>
          <coding>
            <system value="http://loinc.org"/>
            <code value="LA14029-5"/>
            <display value="GRCh37"/>
          </coding>
        </valueCodeableConcept>
      </component>
      <component>
        <code>
          <coding>
            <system value="http://loinc.org"/>
            <code value="48013-7"/>
            <display value="Genomic reference sequence ID"/>
          </coding>
        </code>
        <valueCodeableConcept>
          <coding>
            <system value="http://www.ncbi.nlm.nih.gov/nuccore"/>
            <code value="NC_000022.10"/>
          </coding>
        </valueCodeableConcept>
      </component>
      <component>
        <code>
          <coding>
            <system value="http://loinc.org"/>
            <code value="53034-5"/>
            <display value="Allelic state"/>
          </coding>
        </code>
        <valueCodeableConcept>
          <coding>
            <system value="http://loinc.org"/>
            <code value="LA6706-1"/>
            <display value="heterozygous"/>
          </coding>
        </valueCodeableConcept>
      </component>
      <component>
        <code>
          <coding>
            <system value="http://loinc.org"/>
            <code value="69547-8"/>
            <display value="Genomic Ref allele"/>
          </coding>
        </code>
        <valueString value="G"/>
      </component>
      <component>
        <code>
          <coding>
            <system value="http://loinc.org"/>
            <code value="69551-0"/>
            <display value="Genomic Alt allele"/>
          </coding>
        </code>
        <valueString value="T"/>
      </component>
      <component>
        <code>
          <coding>
            <system value="http://loinc.org"/>
            <code value="tbd-coordinate system"/>
            <display value="Genomic coordinate system"/>
          </coding>
        </code>
        <valueCodeableConcept>
          <coding>
            <system value="http://hl7.org/fhir/uv/genomics-reporting/CodeSystem/genetic-coordinate-system"/>
            <code value="1"/>
          </coding>
        </valueCodeableConcept>
      </component>
      <component>
        <code>
          <coding>
            <system value="http://loinc.org"/>
            <code value="81254-5"/>
            <display value="Genomic Allele start-end"/>
          </coding>
        </code>
        <valueRange>
          <low>
            <value value="42523409"/>
          </low>
        </valueRange>
      </component>
    </Observation>
  </contained>
  <contained>
    <Observation>
      <id value="dv-5c7fc0898ddc8"/>
      <meta>
        <profile value="http://hl7.org/fhir/uv/genomics-reporting/StructureDefinition/obs-described-variant"/>
      </meta>
      <status value="final"/>
      <category>
        <coding>
          <system value="http://terminology.hl7.org/CodeSystem/observation-category"/>
          <code value="laboratory"/>
        </coding>
      </category>
      <code>
        <coding>
          <system value="http://loinc.org"/>
          <code value="TBD-Described"/>
          <display value="Genetic variant assessment"/>
        </coding>
      </code>
      <subject>
        <reference value="Patient/NA19435"/>
      </subject>
      <issued value="2019-03-06T12:43:53+00:00"/>
      <valueCodeableConcept>
        <coding>
          <system value="http://loinc.org"/>
          <code value="LA9633-4"/>
          <display value="Present"/>
        </coding>
      </valueCodeableConcept>
      <component>
        <code>
          <coding>
            <system value="http://loinc.org"/>
            <code value="62374-4"/>
            <display value="Human reference sequence assembly version"/>
          </coding>
        </code>
        <valueCodeableConcept>
          <coding>
            <system value="http://loinc.org"/>
            <code value="LA14029-5"/>
            <display value="GRCh37"/>
          </coding>
        </valueCodeableConcept>
      </component>
      <component>
        <code>
          <coding>
            <system value="http://loinc.org"/>
            <code value="48013-7"/>
            <display value="Genomic reference sequence ID"/>
          </coding>
        </code>
        <valueCodeableConcept>
          <coding>
            <system value="http://www.ncbi.nlm.nih.gov/nuccore"/>
            <code value="NC_000022.10"/>
          </coding>
        </valueCodeableConcept>
      </component>
      <component>
        <code>
          <coding>
            <system value="http://loinc.org"/>
            <code value="53034-5"/>
            <display value="Allelic state"/>
          </coding>
        </code>
        <valueCodeableConcept>
          <coding>
            <system value="http://loinc.org"/>
            <code value="LA6706-1"/>
            <display value="heterozygous"/>
          </coding>
        </valueCodeableConcept>
      </component>
      <component>
        <code>
          <coding>
            <system value="http://loinc.org"/>
            <code value="69547-8"/>
            <display value="Genomic Ref allele"/>
          </coding>
        </code>
        <valueString value="A"/>
      </component>
      <component>
        <code>
          <coding>
            <system value="http://loinc.org"/>
            <code value="69551-0"/>
            <display value="Genomic Alt allele"/>
          </coding>
        </code>
        <valueString value="G"/>
      </component>
      <component>
        <code>
          <coding>
            <system value="http://loinc.org"/>
            <code value="tbd-coordinate system"/>
            <display value="Genomic coordinate system"/>
          </coding>
        </code>
        <valueCodeableConcept>
          <coding>
            <system value="http://hl7.org/fhir/uv/genomics-reporting/CodeSystem/genetic-coordinate-system"/>
            <code value="1"/>
          </coding>
        </valueCodeableConcept>
      </component>
      <component>
        <code>
          <coding>
            <system value="http://loinc.org"/>
            <code value="81254-5"/>
            <display value="Genomic Allele start-end"/>
          </coding>
        </code>
        <valueRange>
          <low>
            <value value="42523943"/>
          </low>
        </valueRange>
      </component>
    </Observation>
  </contained>
  <contained>
    <Observation>
      <id value="dv-5c7fc0898dea2"/>
      <meta>
        <profile value="http://hl7.org/fhir/uv/genomics-reporting/StructureDefinition/obs-described-variant"/>
      </meta>
      <status value="final"/>
      <category>
        <coding>
          <system value="http://terminology.hl7.org/CodeSystem/observation-category"/>
          <code value="laboratory"/>
        </coding>
      </category>
      <code>
        <coding>
          <system value="http://loinc.org"/>
          <code value="TBD-Described"/>
          <display value="Genetic variant assessment"/>
        </coding>
      </code>
      <subject>
        <reference value="Patient/NA19435"/>
      </subject>
      <issued value="2019-03-06T12:43:53+00:00"/>
      <valueCodeableConcept>
        <coding>
          <system value="http://loinc.org"/>
          <code value="LA9633-4"/>
          <display value="Present"/>
        </coding>
      </valueCodeableConcept>
      <component>
        <code>
          <coding>
            <system value="http://loinc.org"/>
            <code value="62374-4"/>
            <display value="Human reference sequence assembly version"/>
          </coding>
        </code>
        <valueCodeableConcept>
          <coding>
            <system value="http://loinc.org"/>
            <code value="LA14029-5"/>
            <display value="GRCh37"/>
          </coding>
        </valueCodeableConcept>
      </component>
      <component>
        <code>
          <coding>
            <system value="http://loinc.org"/>
            <code value="48013-7"/>
            <display value="Genomic reference sequence ID"/>
          </coding>
        </code>
        <valueCodeableConcept>
          <coding>
            <system value="http://www.ncbi.nlm.nih.gov/nuccore"/>
            <code value="NC_000022.10"/>
          </coding>
        </valueCodeableConcept>
      </component>
      <component>
        <code>
          <coding>
            <system value="http://loinc.org"/>
            <code value="53034-5"/>
            <display value="Allelic state"/>
          </coding>
        </code>
        <valueCodeableConcept>
          <coding>
            <system value="http://loinc.org"/>
            <code value="LA6706-1"/>
            <display value="heterozygous"/>
          </coding>
        </valueCodeableConcept>
      </component>
      <component>
        <code>
          <coding>
            <system value="http://loinc.org"/>
            <code value="69547-8"/>
            <display value="Genomic Ref allele"/>
          </coding>
        </code>
        <valueString value="G"/>
      </component>
      <component>
        <code>
          <coding>
            <system value="http://loinc.org"/>
            <code value="69551-0"/>
            <display value="Genomic Alt allele"/>
          </coding>
        </code>
        <valueString value="C"/>
      </component>
      <component>
        <code>
          <coding>
            <system value="http://loinc.org"/>
            <code value="tbd-coordinate system"/>
            <display value="Genomic coordinate system"/>
          </coding>
        </code>
        <valueCodeableConcept>
          <coding>
            <system value="http://hl7.org/fhir/uv/genomics-reporting/CodeSystem/genetic-coordinate-system"/>
            <code value="1"/>
          </coding>
        </valueCodeableConcept>
      </component>
      <component>
        <code>
          <coding>
            <system value="http://loinc.org"/>
            <code value="81254-5"/>
            <display value="Genomic Allele start-end"/>
          </coding>
        </code>
        <valueRange>
          <low>
            <value value="42525132"/>
          </low>
        </valueRange>
      </component>
    </Observation>
  </contained>
  <contained>
    <Observation>
      <id value="dv-5c7fc0898df7c"/>
      <meta>
        <profile value="http://hl7.org/fhir/uv/genomics-reporting/StructureDefinition/obs-described-variant"/>
      </meta>
      <status value="final"/>
      <category>
        <coding>
          <system value="http://terminology.hl7.org/CodeSystem/observation-category"/>
          <code value="laboratory"/>
        </coding>
      </category>
      <code>
        <coding>
          <system value="http://loinc.org"/>
          <code value="TBD-Described"/>
          <display value="Genetic variant assessment"/>
        </coding>
      </code>
      <subject>
        <reference value="Patient/NA19435"/>
      </subject>
      <issued value="2019-03-06T12:43:53+00:00"/>
      <valueCodeableConcept>
        <coding>
          <system value="http://loinc.org"/>
          <code value="LA9633-4"/>
          <display value="Present"/>
        </coding>
      </valueCodeableConcept>
      <component>
        <code>
          <coding>
            <system value="http://loinc.org"/>
            <code value="62374-4"/>
            <display value="Human reference sequence assembly version"/>
          </coding>
        </code>
        <valueCodeableConcept>
          <coding>
            <system value="http://loinc.org"/>
            <code value="LA14029-5"/>
            <display value="GRCh37"/>
          </coding>
        </valueCodeableConcept>
      </component>
      <component>
        <code>
          <coding>
            <system value="http://loinc.org"/>
            <code value="48013-7"/>
            <display value="Genomic reference sequence ID"/>
          </coding>
        </code>
        <valueCodeableConcept>
          <coding>
            <system value="http://www.ncbi.nlm.nih.gov/nuccore"/>
            <code value="NC_000022.10"/>
          </coding>
        </valueCodeableConcept>
      </component>
      <component>
        <code>
          <coding>
            <system value="http://loinc.org"/>
            <code value="53034-5"/>
            <display value="Allelic state"/>
          </coding>
        </code>
        <valueCodeableConcept>
          <coding>
            <system value="http://loinc.org"/>
            <code value="LA6706-1"/>
            <display value="heterozygous"/>
          </coding>
        </valueCodeableConcept>
      </component>
      <component>
        <code>
          <coding>
            <system value="http://loinc.org"/>
            <code value="69547-8"/>
            <display value="Genomic Ref allele"/>
          </coding>
        </code>
        <valueString value="C"/>
      </component>
      <component>
        <code>
          <coding>
            <system value="http://loinc.org"/>
            <code value="69551-0"/>
            <display value="Genomic Alt allele"/>
          </coding>
        </code>
        <valueString value="G"/>
      </component>
      <component>
        <code>
          <coding>
            <system value="http://loinc.org"/>
            <code value="tbd-coordinate system"/>
            <display value="Genomic coordinate system"/>
          </coding>
        </code>
        <valueCodeableConcept>
          <coding>
            <system value="http://hl7.org/fhir/uv/genomics-reporting/CodeSystem/genetic-coordinate-system"/>
            <code value="1"/>
          </coding>
        </valueCodeableConcept>
      </component>
      <component>
        <code>
          <coding>
            <system value="http://loinc.org"/>
            <code value="81254-5"/>
            <display value="Genomic Allele start-end"/>
          </coding>
        </code>
        <valueRange>
          <low>
            <value value="42525616"/>
          </low>
        </valueRange>
      </component>
    </Observation>
  </contained>
  <contained>
    <Observation>
      <id value="dv-5c7fc0898e058"/>
      <meta>
        <profile value="http://hl7.org/fhir/uv/genomics-reporting/StructureDefinition/obs-described-variant"/>
      </meta>
      <status value="final"/>
      <category>
        <coding>
          <system value="http://terminology.hl7.org/CodeSystem/observation-category"/>
          <code value="laboratory"/>
        </coding>
      </category>
      <code>
        <coding>
          <system value="http://loinc.org"/>
          <code value="TBD-Described"/>
          <display value="Genetic variant assessment"/>
        </coding>
      </code>
      <subject>
        <reference value="Patient/NA19435"/>
      </subject>
      <issued value="2019-03-06T12:43:53+00:00"/>
      <valueCodeableConcept>
        <coding>
          <system value="http://loinc.org"/>
          <code value="LA9633-4"/>
          <display value="Present"/>
        </coding>
      </valueCodeableConcept>
      <component>
        <code>
          <coding>
            <system value="http://loinc.org"/>
            <code value="62374-4"/>
            <display value="Human reference sequence assembly version"/>
          </coding>
        </code>
        <valueCodeableConcept>
          <coding>
            <system value="http://loinc.org"/>
            <code value="LA14029-5"/>
            <display value="GRCh37"/>
          </coding>
        </valueCodeableConcept>
      </component>
      <component>
        <code>
          <coding>
            <system value="http://loinc.org"/>
            <code value="48013-7"/>
            <display value="Genomic reference sequence ID"/>
          </coding>
        </code>
        <valueCodeableConcept>
          <coding>
            <system value="http://www.ncbi.nlm.nih.gov/nuccore"/>
            <code value="NC_000022.10"/>
          </coding>
        </valueCodeableConcept>
      </component>
      <component>
        <code>
          <coding>
            <system value="http://loinc.org"/>
            <code value="53034-5"/>
            <display value="Allelic state"/>
          </coding>
        </code>
        <valueCodeableConcept>
          <coding>
            <system value="http://loinc.org"/>
            <code value="LA6706-1"/>
            <display value="heterozygous"/>
          </coding>
        </valueCodeableConcept>
      </component>
      <component>
        <code>
          <coding>
            <system value="http://loinc.org"/>
            <code value="69547-8"/>
            <display value="Genomic Ref allele"/>
          </coding>
        </code>
        <valueString value="G"/>
      </component>
      <component>
        <code>
          <coding>
            <system value="http://loinc.org"/>
            <code value="69551-0"/>
            <display value="Genomic Alt allele"/>
          </coding>
        </code>
        <valueString value="C"/>
      </component>
      <component>
        <code>
          <coding>
            <system value="http://loinc.org"/>
            <code value="tbd-coordinate system"/>
            <display value="Genomic coordinate system"/>
          </coding>
        </code>
        <valueCodeableConcept>
          <coding>
            <system value="http://hl7.org/fhir/uv/genomics-reporting/CodeSystem/genetic-coordinate-system"/>
            <code value="1"/>
          </coding>
        </valueCodeableConcept>
      </component>
      <component>
        <code>
          <coding>
            <system value="http://loinc.org"/>
            <code value="81254-5"/>
            <display value="Genomic Allele start-end"/>
          </coding>
        </code>
        <valueRange>
          <low>
            <value value="42525645"/>
          </low>
        </valueRange>
      </component>
    </Observation>
  </contained>
  <contained>
    <Observation>
      <id value="dv-5c7fc0898e132"/>
      <meta>
        <profile value="http://hl7.org/fhir/uv/genomics-reporting/StructureDefinition/obs-described-variant"/>
      </meta>
      <status value="final"/>
      <category>
        <coding>
          <system value="http://terminology.hl7.org/CodeSystem/observation-category"/>
          <code value="laboratory"/>
        </coding>
      </category>
      <code>
        <coding>
          <system value="http://loinc.org"/>
          <code value="TBD-Described"/>
          <display value="Genetic variant assessment"/>
        </coding>
      </code>
      <subject>
        <reference value="Patient/NA19435"/>
      </subject>
      <issued value="2019-03-06T12:43:53+00:00"/>
      <valueCodeableConcept>
        <coding>
          <system value="http://loinc.org"/>
          <code value="LA9633-4"/>
          <display value="Present"/>
        </coding>
      </valueCodeableConcept>
      <component>
        <code>
          <coding>
            <system value="http://loinc.org"/>
            <code value="62374-4"/>
            <display value="Human reference sequence assembly version"/>
          </coding>
        </code>
        <valueCodeableConcept>
          <coding>
            <system value="http://loinc.org"/>
            <code value="LA14029-5"/>
            <display value="GRCh37"/>
          </coding>
        </valueCodeableConcept>
      </component>
      <component>
        <code>
          <coding>
            <system value="http://loinc.org"/>
            <code value="48013-7"/>
            <display value="Genomic reference sequence ID"/>
          </coding>
        </code>
        <valueCodeableConcept>
          <coding>
            <system value="http://www.ncbi.nlm.nih.gov/nuccore"/>
            <code value="NC_000022.10"/>
          </coding>
        </valueCodeableConcept>
      </component>
      <component>
        <code>
          <coding>
            <system value="http://loinc.org"/>
            <code value="53034-5"/>
            <display value="Allelic state"/>
          </coding>
        </code>
        <valueCodeableConcept>
          <coding>
            <system value="http://loinc.org"/>
            <code value="LA6706-1"/>
            <display value="heterozygous"/>
          </coding>
        </valueCodeableConcept>
      </component>
      <component>
        <code>
          <coding>
            <system value="http://loinc.org"/>
            <code value="69547-8"/>
            <display value="Genomic Ref allele"/>
          </coding>
        </code>
        <valueString value="G"/>
      </component>
      <component>
        <code>
          <coding>
            <system value="http://loinc.org"/>
            <code value="69551-0"/>
            <display value="Genomic Alt allele"/>
          </coding>
        </code>
        <valueString value="C"/>
      </component>
      <component>
        <code>
          <coding>
            <system value="http://loinc.org"/>
            <code value="tbd-coordinate system"/>
            <display value="Genomic coordinate system"/>
          </coding>
        </code>
        <valueCodeableConcept>
          <coding>
            <system value="http://hl7.org/fhir/uv/genomics-reporting/CodeSystem/genetic-coordinate-system"/>
            <code value="1"/>
          </coding>
        </valueCodeableConcept>
      </component>
      <component>
        <code>
          <coding>
            <system value="http://loinc.org"/>
            <code value="81254-5"/>
            <display value="Genomic Allele start-end"/>
          </coding>
        </code>
        <valueRange>
          <low>
            <value value="42525798"/>
          </low>
        </valueRange>
      </component>
    </Observation>
  </contained>
  <contained>
    <Observation>
      <id value="dv-5c7fc0898e20d"/>
      <meta>
        <profile value="http://hl7.org/fhir/uv/genomics-reporting/StructureDefinition/obs-described-variant"/>
      </meta>
      <status value="final"/>
      <category>
        <coding>
          <system value="http://terminology.hl7.org/CodeSystem/observation-category"/>
          <code value="laboratory"/>
        </coding>
      </category>
      <code>
        <coding>
          <system value="http://loinc.org"/>
          <code value="TBD-Described"/>
          <display value="Genetic variant assessment"/>
        </coding>
      </code>
      <subject>
        <reference value="Patient/NA19435"/>
      </subject>
      <issued value="2019-03-06T12:43:53+00:00"/>
      <valueCodeableConcept>
        <coding>
          <system value="http://loinc.org"/>
          <code value="LA9633-4"/>
          <display value="Present"/>
        </coding>
      </valueCodeableConcept>
      <component>
        <code>
          <coding>
            <system value="http://loinc.org"/>
            <code value="62374-4"/>
            <display value="Human reference sequence assembly version"/>
          </coding>
        </code>
        <valueCodeableConcept>
          <coding>
            <system value="http://loinc.org"/>
            <code value="LA14029-5"/>
            <display value="GRCh37"/>
          </coding>
        </valueCodeableConcept>
      </component>
      <component>
        <code>
          <coding>
            <system value="http://loinc.org"/>
            <code value="48013-7"/>
            <display value="Genomic reference sequence ID"/>
          </coding>
        </code>
        <valueCodeableConcept>
          <coding>
            <system value="http://www.ncbi.nlm.nih.gov/nuccore"/>
            <code value="NC_000022.10"/>
          </coding>
        </valueCodeableConcept>
      </component>
      <component>
        <code>
          <coding>
            <system value="http://loinc.org"/>
            <code value="53034-5"/>
            <display value="Allelic state"/>
          </coding>
        </code>
        <valueCodeableConcept>
          <coding>
            <system value="http://loinc.org"/>
            <code value="LA6706-1"/>
            <display value="heterozygous"/>
          </coding>
        </valueCodeableConcept>
      </component>
      <component>
        <code>
          <coding>
            <system value="http://loinc.org"/>
            <code value="69547-8"/>
            <display value="Genomic Ref allele"/>
          </coding>
        </code>
        <valueString value="C"/>
      </component>
      <component>
        <code>
          <coding>
            <system value="http://loinc.org"/>
            <code value="69551-0"/>
            <display value="Genomic Alt allele"/>
          </coding>
        </code>
        <valueString value="A"/>
      </component>
      <component>
        <code>
          <coding>
            <system value="http://loinc.org"/>
            <code value="tbd-coordinate system"/>
            <display value="Genomic coordinate system"/>
          </coding>
        </code>
        <valueCodeableConcept>
          <coding>
            <system value="http://hl7.org/fhir/uv/genomics-reporting/CodeSystem/genetic-coordinate-system"/>
            <code value="1"/>
          </coding>
        </valueCodeableConcept>
      </component>
      <component>
        <code>
          <coding>
            <system value="http://loinc.org"/>
            <code value="81254-5"/>
            <display value="Genomic Allele start-end"/>
          </coding>
        </code>
        <valueRange>
          <low>
            <value value="42525952"/>
          </low>
        </valueRange>
      </component>
    </Observation>
  </contained>
  <contained>
    <Observation>
      <id value="dv-5c7fc0898e2e8"/>
      <meta>
        <profile value="http://hl7.org/fhir/uv/genomics-reporting/StructureDefinition/obs-described-variant"/>
      </meta>
      <status value="final"/>
      <category>
        <coding>
          <system value="http://terminology.hl7.org/CodeSystem/observation-category"/>
          <code value="laboratory"/>
        </coding>
      </category>
      <code>
        <coding>
          <system value="http://loinc.org"/>
          <code value="TBD-Described"/>
          <display value="Genetic variant assessment"/>
        </coding>
      </code>
      <subject>
        <reference value="Patient/NA19435"/>
      </subject>
      <issued value="2019-03-06T12:43:53+00:00"/>
      <valueCodeableConcept>
        <coding>
          <system value="http://loinc.org"/>
          <code value="LA9633-4"/>
          <display value="Present"/>
        </coding>
      </valueCodeableConcept>
      <component>
        <code>
          <coding>
            <system value="http://loinc.org"/>
            <code value="62374-4"/>
            <display value="Human reference sequence assembly version"/>
          </coding>
        </code>
        <valueCodeableConcept>
          <coding>
            <system value="http://loinc.org"/>
            <code value="LA14029-5"/>
            <display value="GRCh37"/>
          </coding>
        </valueCodeableConcept>
      </component>
      <component>
        <code>
          <coding>
            <system value="http://loinc.org"/>
            <code value="48013-7"/>
            <display value="Genomic reference sequence ID"/>
          </coding>
        </code>
        <valueCodeableConcept>
          <coding>
            <system value="http://www.ncbi.nlm.nih.gov/nuccore"/>
            <code value="NC_000022.10"/>
          </coding>
        </valueCodeableConcept>
      </component>
      <component>
        <code>
          <coding>
            <system value="http://loinc.org"/>
            <code value="53034-5"/>
            <display value="Allelic state"/>
          </coding>
        </code>
        <valueCodeableConcept>
          <coding>
            <system value="http://loinc.org"/>
            <code value="LA6706-1"/>
            <display value="heterozygous"/>
          </coding>
        </valueCodeableConcept>
      </component>
      <component>
        <code>
          <coding>
            <system value="http://loinc.org"/>
            <code value="69547-8"/>
            <display value="Genomic Ref allele"/>
          </coding>
        </code>
        <valueString value="C"/>
      </component>
      <component>
        <code>
          <coding>
            <system value="http://loinc.org"/>
            <code value="69551-0"/>
            <display value="Genomic Alt allele"/>
          </coding>
        </code>
        <valueString value="G"/>
      </component>
      <component>
        <code>
          <coding>
            <system value="http://loinc.org"/>
            <code value="tbd-coordinate system"/>
            <display value="Genomic coordinate system"/>
          </coding>
        </code>
        <valueCodeableConcept>
          <coding>
            <system value="http://hl7.org/fhir/uv/genomics-reporting/CodeSystem/genetic-coordinate-system"/>
            <code value="1"/>
          </coding>
        </valueCodeableConcept>
      </component>
      <component>
        <code>
          <coding>
            <system value="http://loinc.org"/>
            <code value="81254-5"/>
            <display value="Genomic Allele start-end"/>
          </coding>
        </code>
        <valueRange>
          <low>
            <value value="42526049"/>
          </low>
        </valueRange>
      </component>
    </Observation>
  </contained>
  <contained>
    <Observation>
      <id value="dv-5c7fc0898e3c2"/>
      <meta>
        <profile value="http://hl7.org/fhir/uv/genomics-reporting/StructureDefinition/obs-described-variant"/>
      </meta>
      <status value="final"/>
      <category>
        <coding>
          <system value="http://terminology.hl7.org/CodeSystem/observation-category"/>
          <code value="laboratory"/>
        </coding>
      </category>
      <code>
        <coding>
          <system value="http://loinc.org"/>
          <code value="TBD-Described"/>
          <display value="Genetic variant assessment"/>
        </coding>
      </code>
      <subject>
        <reference value="Patient/NA19435"/>
      </subject>
      <issued value="2019-03-06T12:43:53+00:00"/>
      <valueCodeableConcept>
        <coding>
          <system value="http://loinc.org"/>
          <code value="LA9633-4"/>
          <display value="Present"/>
        </coding>
      </valueCodeableConcept>
      <component>
        <code>
          <coding>
            <system value="http://loinc.org"/>
            <code value="62374-4"/>
            <display value="Human reference sequence assembly version"/>
          </coding>
        </code>
        <valueCodeableConcept>
          <coding>
            <system value="http://loinc.org"/>
            <code value="LA14029-5"/>
            <display value="GRCh37"/>
          </coding>
        </valueCodeableConcept>
      </component>
      <component>
        <code>
          <coding>
            <system value="http://loinc.org"/>
            <code value="48013-7"/>
            <display value="Genomic reference sequence ID"/>
          </coding>
        </code>
        <valueCodeableConcept>
          <coding>
            <system value="http://www.ncbi.nlm.nih.gov/nuccore"/>
            <code value="NC_000022.10"/>
          </coding>
        </valueCodeableConcept>
      </component>
      <component>
        <code>
          <coding>
            <system value="http://loinc.org"/>
            <code value="53034-5"/>
            <display value="Allelic state"/>
          </coding>
        </code>
        <valueCodeableConcept>
          <coding>
            <system value="http://loinc.org"/>
            <code value="LA6706-1"/>
            <display value="heterozygous"/>
          </coding>
        </valueCodeableConcept>
      </component>
      <component>
        <code>
          <coding>
            <system value="http://loinc.org"/>
            <code value="69547-8"/>
            <display value="Genomic Ref allele"/>
          </coding>
        </code>
        <valueString value="C"/>
      </component>
      <component>
        <code>
          <coding>
            <system value="http://loinc.org"/>
            <code value="69551-0"/>
            <display value="Genomic Alt allele"/>
          </coding>
        </code>
        <valueString value="T"/>
      </component>
      <component>
        <code>
          <coding>
            <system value="http://loinc.org"/>
            <code value="tbd-coordinate system"/>
            <display value="Genomic coordinate system"/>
          </coding>
        </code>
        <valueCodeableConcept>
          <coding>
            <system value="http://hl7.org/fhir/uv/genomics-reporting/CodeSystem/genetic-coordinate-system"/>
            <code value="1"/>
          </coding>
        </valueCodeableConcept>
      </component>
      <component>
        <code>
          <coding>
            <system value="http://loinc.org"/>
            <code value="81254-5"/>
            <display value="Genomic Allele start-end"/>
          </coding>
        </code>
        <valueRange>
          <low>
            <value value="42526549"/>
          </low>
        </valueRange>
      </component>
    </Observation>
  </contained>
  <contained>
    <Observation>
      <id value="dv-5c7fc0898e49c"/>
      <meta>
        <profile value="http://hl7.org/fhir/uv/genomics-reporting/StructureDefinition/obs-described-variant"/>
      </meta>
      <status value="final"/>
      <category>
        <coding>
          <system value="http://terminology.hl7.org/CodeSystem/observation-category"/>
          <code value="laboratory"/>
        </coding>
      </category>
      <code>
        <coding>
          <system value="http://loinc.org"/>
          <code value="TBD-Described"/>
          <display value="Genetic variant assessment"/>
        </coding>
      </code>
      <subject>
        <reference value="Patient/NA19435"/>
      </subject>
      <issued value="2019-03-06T12:43:53+00:00"/>
      <valueCodeableConcept>
        <coding>
          <system value="http://loinc.org"/>
          <code value="LA9633-4"/>
          <display value="Present"/>
        </coding>
      </valueCodeableConcept>
      <component>
        <code>
          <coding>
            <system value="http://loinc.org"/>
            <code value="62374-4"/>
            <display value="Human reference sequence assembly version"/>
          </coding>
        </code>
        <valueCodeableConcept>
          <coding>
            <system value="http://loinc.org"/>
            <code value="LA14029-5"/>
            <display value="GRCh37"/>
          </coding>
        </valueCodeableConcept>
      </component>
      <component>
        <code>
          <coding>
            <system value="http://loinc.org"/>
            <code value="48013-7"/>
            <display value="Genomic reference sequence ID"/>
          </coding>
        </code>
        <valueCodeableConcept>
          <coding>
            <system value="http://www.ncbi.nlm.nih.gov/nuccore"/>
            <code value="NC_000022.10"/>
          </coding>
        </valueCodeableConcept>
      </component>
      <component>
        <code>
          <coding>
            <system value="http://loinc.org"/>
            <code value="53034-5"/>
            <display value="Allelic state"/>
          </coding>
        </code>
        <valueCodeableConcept>
          <coding>
            <system value="http://loinc.org"/>
            <code value="LA6706-1"/>
            <display value="heterozygous"/>
          </coding>
        </valueCodeableConcept>
      </component>
      <component>
        <code>
          <coding>
            <system value="http://loinc.org"/>
            <code value="69547-8"/>
            <display value="Genomic Ref allele"/>
          </coding>
        </code>
        <valueString value="GG"/>
      </component>
      <component>
        <code>
          <coding>
            <system value="http://loinc.org"/>
            <code value="69551-0"/>
            <display value="Genomic Alt allele"/>
          </coding>
        </code>
        <valueString value="TC"/>
      </component>
      <component>
        <code>
          <coding>
            <system value="http://loinc.org"/>
            <code value="tbd-coordinate system"/>
            <display value="Genomic coordinate system"/>
          </coding>
        </code>
        <valueCodeableConcept>
          <coding>
            <system value="http://hl7.org/fhir/uv/genomics-reporting/CodeSystem/genetic-coordinate-system"/>
            <code value="1"/>
          </coding>
        </valueCodeableConcept>
      </component>
      <component>
        <code>
          <coding>
            <system value="http://loinc.org"/>
            <code value="81254-5"/>
            <display value="Genomic Allele start-end"/>
          </coding>
        </code>
        <valueRange>
          <low>
            <value value="42526561"/>
          </low>
        </valueRange>
      </component>
    </Observation>
  </contained>
  <contained>
    <Observation>
      <id value="dv-5c7fc0898e576"/>
      <meta>
        <profile value="http://hl7.org/fhir/uv/genomics-reporting/StructureDefinition/obs-described-variant"/>
      </meta>
      <status value="final"/>
      <category>
        <coding>
          <system value="http://terminology.hl7.org/CodeSystem/observation-category"/>
          <code value="laboratory"/>
        </coding>
      </category>
      <code>
        <coding>
          <system value="http://loinc.org"/>
          <code value="TBD-Described"/>
          <display value="Genetic variant assessment"/>
        </coding>
      </code>
      <subject>
        <reference value="Patient/NA19435"/>
      </subject>
      <issued value="2019-03-06T12:43:53+00:00"/>
      <valueCodeableConcept>
        <coding>
          <system value="http://loinc.org"/>
          <code value="LA9633-4"/>
          <display value="Present"/>
        </coding>
      </valueCodeableConcept>
      <component>
        <code>
          <coding>
            <system value="http://loinc.org"/>
            <code value="62374-4"/>
            <display value="Human reference sequence assembly version"/>
          </coding>
        </code>
        <valueCodeableConcept>
          <coding>
            <system value="http://loinc.org"/>
            <code value="LA14029-5"/>
            <display value="GRCh37"/>
          </coding>
        </valueCodeableConcept>
      </component>
      <component>
        <code>
          <coding>
            <system value="http://loinc.org"/>
            <code value="48013-7"/>
            <display value="Genomic reference sequence ID"/>
          </coding>
        </code>
        <valueCodeableConcept>
          <coding>
            <system value="http://www.ncbi.nlm.nih.gov/nuccore"/>
            <code value="NC_000022.10"/>
          </coding>
        </valueCodeableConcept>
      </component>
      <component>
        <code>
          <coding>
            <system value="http://loinc.org"/>
            <code value="53034-5"/>
            <display value="Allelic state"/>
          </coding>
        </code>
        <valueCodeableConcept>
          <coding>
            <system value="http://loinc.org"/>
            <code value="LA6706-1"/>
            <display value="heterozygous"/>
          </coding>
        </valueCodeableConcept>
      </component>
      <component>
        <code>
          <coding>
            <system value="http://loinc.org"/>
            <code value="69547-8"/>
            <display value="Genomic Ref allele"/>
          </coding>
        </code>
        <valueString value="G"/>
      </component>
      <component>
        <code>
          <coding>
            <system value="http://loinc.org"/>
            <code value="69551-0"/>
            <display value="Genomic Alt allele"/>
          </coding>
        </code>
        <valueString value="A"/>
      </component>
      <component>
        <code>
          <coding>
            <system value="http://loinc.org"/>
            <code value="tbd-coordinate system"/>
            <display value="Genomic coordinate system"/>
          </coding>
        </code>
        <valueCodeableConcept>
          <coding>
            <system value="http://hl7.org/fhir/uv/genomics-reporting/CodeSystem/genetic-coordinate-system"/>
            <code value="1"/>
          </coding>
        </valueCodeableConcept>
      </component>
      <component>
        <code>
          <coding>
            <system value="http://loinc.org"/>
            <code value="81254-5"/>
            <display value="Genomic Allele start-end"/>
          </coding>
        </code>
        <valueRange>
          <low>
            <value value="42526567"/>
          </low>
        </valueRange>
      </component>
    </Observation>
  </contained>
  <contained>
    <Observation>
      <id value="dv-5c7fc0898e650"/>
      <meta>
        <profile value="http://hl7.org/fhir/uv/genomics-reporting/StructureDefinition/obs-described-variant"/>
      </meta>
      <status value="final"/>
      <category>
        <coding>
          <system value="http://terminology.hl7.org/CodeSystem/observation-category"/>
          <code value="laboratory"/>
        </coding>
      </category>
      <code>
        <coding>
          <system value="http://loinc.org"/>
          <code value="TBD-Described"/>
          <display value="Genetic variant assessment"/>
        </coding>
      </code>
      <subject>
        <reference value="Patient/NA19435"/>
      </subject>
      <issued value="2019-03-06T12:43:53+00:00"/>
      <valueCodeableConcept>
        <coding>
          <system value="http://loinc.org"/>
          <code value="LA9633-4"/>
          <display value="Present"/>
        </coding>
      </valueCodeableConcept>
      <component>
        <code>
          <coding>
            <system value="http://loinc.org"/>
            <code value="62374-4"/>
            <display value="Human reference sequence assembly version"/>
          </coding>
        </code>
        <valueCodeableConcept>
          <coding>
            <system value="http://loinc.org"/>
            <code value="LA14029-5"/>
            <display value="GRCh37"/>
          </coding>
        </valueCodeableConcept>
      </component>
      <component>
        <code>
          <coding>
            <system value="http://loinc.org"/>
            <code value="48013-7"/>
            <display value="Genomic reference sequence ID"/>
          </coding>
        </code>
        <valueCodeableConcept>
          <coding>
            <system value="http://www.ncbi.nlm.nih.gov/nuccore"/>
            <code value="NC_000022.10"/>
          </coding>
        </valueCodeableConcept>
      </component>
      <component>
        <code>
          <coding>
            <system value="http://loinc.org"/>
            <code value="53034-5"/>
            <display value="Allelic state"/>
          </coding>
        </code>
        <valueCodeableConcept>
          <coding>
            <system value="http://loinc.org"/>
            <code value="LA6706-1"/>
            <display value="heterozygous"/>
          </coding>
        </valueCodeableConcept>
      </component>
      <component>
        <code>
          <coding>
            <system value="http://loinc.org"/>
            <code value="69547-8"/>
            <display value="Genomic Ref allele"/>
          </coding>
        </code>
        <valueString value="CAT"/>
      </component>
      <component>
        <code>
          <coding>
            <system value="http://loinc.org"/>
            <code value="69551-0"/>
            <display value="Genomic Alt allele"/>
          </coding>
        </code>
        <valueString value="GAG"/>
      </component>
      <component>
        <code>
          <coding>
            <system value="http://loinc.org"/>
            <code value="tbd-coordinate system"/>
            <display value="Genomic coordinate system"/>
          </coding>
        </code>
        <valueCodeableConcept>
          <coding>
            <system value="http://hl7.org/fhir/uv/genomics-reporting/CodeSystem/genetic-coordinate-system"/>
            <code value="1"/>
          </coding>
        </valueCodeableConcept>
      </component>
      <component>
        <code>
          <coding>
            <system value="http://loinc.org"/>
            <code value="81254-5"/>
            <display value="Genomic Allele start-end"/>
          </coding>
        </code>
        <valueRange>
          <low>
            <value value="42526571"/>
          </low>
        </valueRange>
      </component>
    </Observation>
  </contained>
  <contained>
    <Observation>
      <id value="dv-5c7fc0898e72a"/>
      <meta>
        <profile value="http://hl7.org/fhir/uv/genomics-reporting/StructureDefinition/obs-described-variant"/>
      </meta>
      <status value="final"/>
      <category>
        <coding>
          <system value="http://terminology.hl7.org/CodeSystem/observation-category"/>
          <code value="laboratory"/>
        </coding>
      </category>
      <code>
        <coding>
          <system value="http://loinc.org"/>
          <code value="TBD-Described"/>
          <display value="Genetic variant assessment"/>
        </coding>
      </code>
      <subject>
        <reference value="Patient/NA19435"/>
      </subject>
      <issued value="2019-03-06T12:43:53+00:00"/>
      <valueCodeableConcept>
        <coding>
          <system value="http://loinc.org"/>
          <code value="LA9633-4"/>
          <display value="Present"/>
        </coding>
      </valueCodeableConcept>
      <component>
        <code>
          <coding>
            <system value="http://loinc.org"/>
            <code value="62374-4"/>
            <display value="Human reference sequence assembly version"/>
          </coding>
        </code>
        <valueCodeableConcept>
          <coding>
            <system value="http://loinc.org"/>
            <code value="LA14029-5"/>
            <display value="GRCh37"/>
          </coding>
        </valueCodeableConcept>
      </component>
      <component>
        <code>
          <coding>
            <system value="http://loinc.org"/>
            <code value="48013-7"/>
            <display value="Genomic reference sequence ID"/>
          </coding>
        </code>
        <valueCodeableConcept>
          <coding>
            <system value="http://www.ncbi.nlm.nih.gov/nuccore"/>
            <code value="NC_000022.10"/>
          </coding>
        </valueCodeableConcept>
      </component>
      <component>
        <code>
          <coding>
            <system value="http://loinc.org"/>
            <code value="53034-5"/>
            <display value="Allelic state"/>
          </coding>
        </code>
        <valueCodeableConcept>
          <coding>
            <system value="http://loinc.org"/>
            <code value="LA6706-1"/>
            <display value="heterozygous"/>
          </coding>
        </valueCodeableConcept>
      </component>
      <component>
        <code>
          <coding>
            <system value="http://loinc.org"/>
            <code value="69547-8"/>
            <display value="Genomic Ref allele"/>
          </coding>
        </code>
        <valueString value="G"/>
      </component>
      <component>
        <code>
          <coding>
            <system value="http://loinc.org"/>
            <code value="69551-0"/>
            <display value="Genomic Alt allele"/>
          </coding>
        </code>
        <valueString value="C"/>
      </component>
      <component>
        <code>
          <coding>
            <system value="http://loinc.org"/>
            <code value="tbd-coordinate system"/>
            <display value="Genomic coordinate system"/>
          </coding>
        </code>
        <valueCodeableConcept>
          <coding>
            <system value="http://hl7.org/fhir/uv/genomics-reporting/CodeSystem/genetic-coordinate-system"/>
            <code value="1"/>
          </coding>
        </valueCodeableConcept>
      </component>
      <component>
        <code>
          <coding>
            <system value="http://loinc.org"/>
            <code value="81254-5"/>
            <display value="Genomic Allele start-end"/>
          </coding>
        </code>
        <valueRange>
          <low>
            <value value="42526580"/>
          </low>
        </valueRange>
      </component>
    </Observation>
  </contained>
  <contained>
    <Observation>
      <id value="dv-5c7fc0898e804"/>
      <meta>
        <profile value="http://hl7.org/fhir/uv/genomics-reporting/StructureDefinition/obs-described-variant"/>
      </meta>
      <status value="final"/>
      <category>
        <coding>
          <system value="http://terminology.hl7.org/CodeSystem/observation-category"/>
          <code value="laboratory"/>
        </coding>
      </category>
      <code>
        <coding>
          <system value="http://loinc.org"/>
          <code value="TBD-Described"/>
          <display value="Genetic variant assessment"/>
        </coding>
      </code>
      <subject>
        <reference value="Patient/NA19435"/>
      </subject>
      <issued value="2019-03-06T12:43:53+00:00"/>
      <valueCodeableConcept>
        <coding>
          <system value="http://loinc.org"/>
          <code value="LA9633-4"/>
          <display value="Present"/>
        </coding>
      </valueCodeableConcept>
      <component>
        <code>
          <coding>
            <system value="http://loinc.org"/>
            <code value="62374-4"/>
            <display value="Human reference sequence assembly version"/>
          </coding>
        </code>
        <valueCodeableConcept>
          <coding>
            <system value="http://loinc.org"/>
            <code value="LA14029-5"/>
            <display value="GRCh37"/>
          </coding>
        </valueCodeableConcept>
      </component>
      <component>
        <code>
          <coding>
            <system value="http://loinc.org"/>
            <code value="48013-7"/>
            <display value="Genomic reference sequence ID"/>
          </coding>
        </code>
        <valueCodeableConcept>
          <coding>
            <system value="http://www.ncbi.nlm.nih.gov/nuccore"/>
            <code value="NC_000022.10"/>
          </coding>
        </valueCodeableConcept>
      </component>
      <component>
        <code>
          <coding>
            <system value="http://loinc.org"/>
            <code value="53034-5"/>
            <display value="Allelic state"/>
          </coding>
        </code>
        <valueCodeableConcept>
          <coding>
            <system value="http://loinc.org"/>
            <code value="LA6706-1"/>
            <display value="heterozygous"/>
          </coding>
        </valueCodeableConcept>
      </component>
      <component>
        <code>
          <coding>
            <system value="http://loinc.org"/>
            <code value="69547-8"/>
            <display value="Genomic Ref allele"/>
          </coding>
        </code>
        <valueString value="C"/>
      </component>
      <component>
        <code>
          <coding>
            <system value="http://loinc.org"/>
            <code value="69551-0"/>
            <display value="Genomic Alt allele"/>
          </coding>
        </code>
        <valueString value="T"/>
      </component>
      <component>
        <code>
          <coding>
            <system value="http://loinc.org"/>
            <code value="tbd-coordinate system"/>
            <display value="Genomic coordinate system"/>
          </coding>
        </code>
        <valueCodeableConcept>
          <coding>
            <system value="http://hl7.org/fhir/uv/genomics-reporting/CodeSystem/genetic-coordinate-system"/>
            <code value="1"/>
          </coding>
        </valueCodeableConcept>
      </component>
      <component>
        <code>
          <coding>
            <system value="http://loinc.org"/>
            <code value="81254-5"/>
            <display value="Genomic Allele start-end"/>
          </coding>
        </code>
        <valueRange>
          <low>
            <value value="42526717"/>
          </low>
        </valueRange>
      </component>
    </Observation>
  </contained>
  <contained>
    <Observation>
      <id value="sid-5c7fc0898e8de"/>
      <meta>
        <profile value="http://hl7.org/fhir/uv/genomics-reporting/StructureDefinition/obs-sequence-phase-reltn"/>
      </meta>
      <extension url="http://hl7.org/fhir/uv/genomics-reporting/StructureDefinition/obs-focus">
        <valueReference>
          <reference value="#dv-5c7fc0898df7c"/>
        </valueReference>
      </extension>
      <extension url="http://hl7.org/fhir/uv/genomics-reporting/StructureDefinition/obs-focus">
        <valueReference>
          <reference value="#dv-5c7fc0898e058"/>
        </valueReference>
      </extension>
      <status value="final"/>
      <category>
        <coding>
          <system value="http://terminology.hl7.org/CodeSystem/observation-category"/>
          <code value="laboratory"/>
        </coding>
      </category>
      <code>
        <coding>
          <system value="http://loinc.org"/>
          <code value="TBD-sequence-phase-relation"/>
          <display value="Sequence phase relationship"/>
        </coding>
      </code>
      <subject>
        <reference value="Patient/NA19435"/>
      </subject>
      <issued value="2019-03-06T12:43:53+00:00"/>
      <valueCodeableConcept>
        <coding>
          <system value="http://loinc.org"/>
          <code value="TBD-cisTrans"/>
          <display value="Cis"/>
        </coding>
      </valueCodeableConcept>
    </Observation>
  </contained>
  <contained>
    <Observation>
      <id value="sid-5c7fc0898e917"/>
      <meta>
        <profile value="http://hl7.org/fhir/uv/genomics-reporting/StructureDefinition/obs-sequence-phase-reltn"/>
      </meta>
      <extension url="http://hl7.org/fhir/uv/genomics-reporting/StructureDefinition/obs-focus">
        <valueReference>
          <reference value="#dv-5c7fc0898e3c2"/>
        </valueReference>
      </extension>
      <extension url="http://hl7.org/fhir/uv/genomics-reporting/StructureDefinition/obs-focus">
        <valueReference>
          <reference value="#dv-5c7fc0898e49c"/>
        </valueReference>
      </extension>
      <status value="final"/>
      <category>
        <coding>
          <system value="http://terminology.hl7.org/CodeSystem/observation-category"/>
          <code value="laboratory"/>
        </coding>
      </category>
      <code>
        <coding>
          <system value="http://loinc.org"/>
          <code value="TBD-sequence-phase-relation"/>
          <display value="Sequence phase relationship"/>
        </coding>
      </code>
      <subject>
        <reference value="Patient/NA19435"/>
      </subject>
      <issued value="2019-03-06T12:43:53+00:00"/>
      <valueCodeableConcept>
        <coding>
          <system value="http://loinc.org"/>
          <code value="TBD-cisTrans"/>
          <display value="Cis"/>
        </coding>
      </valueCodeableConcept>
    </Observation>
  </contained>
  <contained>
    <Observation>
      <id value="sid-5c7fc0898e94f"/>
      <meta>
        <profile value="http://hl7.org/fhir/uv/genomics-reporting/StructureDefinition/obs-sequence-phase-reltn"/>
      </meta>
      <extension url="http://hl7.org/fhir/uv/genomics-reporting/StructureDefinition/obs-focus">
        <valueReference>
          <reference value="#dv-5c7fc0898e49c"/>
        </valueReference>
      </extension>
      <extension url="http://hl7.org/fhir/uv/genomics-reporting/StructureDefinition/obs-focus">
        <valueReference>
          <reference value="#dv-5c7fc0898e576"/>
        </valueReference>
      </extension>
      <status value="final"/>
      <category>
        <coding>
          <system value="http://terminology.hl7.org/CodeSystem/observation-category"/>
          <code value="laboratory"/>
        </coding>
      </category>
      <code>
        <coding>
          <system value="http://loinc.org"/>
          <code value="TBD-sequence-phase-relation"/>
          <display value="Sequence phase relationship"/>
        </coding>
      </code>
      <subject>
        <reference value="Patient/NA19435"/>
      </subject>
      <issued value="2019-03-06T12:43:53+00:00"/>
      <valueCodeableConcept>
        <coding>
          <system value="http://loinc.org"/>
          <code value="TBD-cisTrans"/>
          <display value="Cis"/>
        </coding>
      </valueCodeableConcept>
    </Observation>
  </contained>
  <contained>
    <Observation>
      <id value="sid-5c7fc0898e987"/>
      <meta>
        <profile value="http://hl7.org/fhir/uv/genomics-reporting/StructureDefinition/obs-sequence-phase-reltn"/>
      </meta>
      <extension url="http://hl7.org/fhir/uv/genomics-reporting/StructureDefinition/obs-focus">
        <valueReference>
          <reference value="#dv-5c7fc0898e576"/>
        </valueReference>
      </extension>
      <extension url="http://hl7.org/fhir/uv/genomics-reporting/StructureDefinition/obs-focus">
        <valueReference>
          <reference value="#dv-5c7fc0898e650"/>
        </valueReference>
      </extension>
      <status value="final"/>
      <category>
        <coding>
          <system value="http://terminology.hl7.org/CodeSystem/observation-category"/>
          <code value="laboratory"/>
        </coding>
      </category>
      <code>
        <coding>
          <system value="http://loinc.org"/>
          <code value="TBD-sequence-phase-relation"/>
          <display value="Sequence phase relationship"/>
        </coding>
      </code>
      <subject>
        <reference value="Patient/NA19435"/>
      </subject>
      <issued value="2019-03-06T12:43:53+00:00"/>
      <valueCodeableConcept>
        <coding>
          <system value="http://loinc.org"/>
          <code value="TBD-cisTrans"/>
          <display value="Cis"/>
        </coding>
      </valueCodeableConcept>
    </Observation>
  </contained>
  <contained>
    <Observation>
      <id value="sid-5c7fc0898e99f"/>
      <meta>
        <profile value="http://hl7.org/fhir/uv/genomics-reporting/StructureDefinition/obs-sequence-phase-reltn"/>
      </meta>
      <extension url="http://hl7.org/fhir/uv/genomics-reporting/StructureDefinition/obs-focus">
        <valueReference>
          <reference value="#dv-5c7fc0898e650"/>
        </valueReference>
      </extension>
      <extension url="http://hl7.org/fhir/uv/genomics-reporting/StructureDefinition/obs-focus">
        <valueReference>
          <reference value="#dv-5c7fc0898e72a"/>
        </valueReference>
      </extension>
      <status value="final"/>
      <category>
        <coding>
          <system value="http://terminology.hl7.org/CodeSystem/observation-category"/>
          <code value="laboratory"/>
        </coding>
      </category>
      <code>
        <coding>
          <system value="http://loinc.org"/>
          <code value="TBD-sequence-phase-relation"/>
          <display value="Sequence phase relationship"/>
        </coding>
      </code>
      <subject>
        <reference value="Patient/NA19435"/>
      </subject>
      <issued value="2019-03-06T12:43:53+00:00"/>
      <valueCodeableConcept>
        <coding>
          <system value="http://loinc.org"/>
          <code value="TBD-cisTrans"/>
          <display value="Cis"/>
        </coding>
      </valueCodeableConcept>
    </Observation>
  </contained>
  <status value="final"/>
  <code>
    <coding>
      <system value="http://loinc.org"/>
      <code value="51969-4"/>
    </coding>
    <text value="Genetic analysis report"/>
  </code>
  <subject>
    <reference value="Patient/NA19435"/>
  </subject>
  <result>
    <reference value="#rs-5c7fc0898d924"/>
  </result>
  <result>
    <reference value="#dv-5c7fc0898da2f"/>
  </result>
  <result>
    <reference value="#dv-5c7fc0898db2e"/>
  </result>
  <result>
    <reference value="#dv-5c7fc0898dc11"/>
  </result>
  <result>
    <reference value="#dv-5c7fc0898dced"/>
  </result>
  <result>
    <reference value="#dv-5c7fc0898ddc8"/>
  </result>
  <result>
    <reference value="#dv-5c7fc0898dea2"/>
  </result>
  <result>
    <reference value="#dv-5c7fc0898df7c"/>
  </result>
  <result>
    <reference value="#dv-5c7fc0898e058"/>
  </result>
  <result>
    <reference value="#dv-5c7fc0898e132"/>
  </result>
  <result>
    <reference value="#dv-5c7fc0898e20d"/>
  </result>
  <result>
    <reference value="#dv-5c7fc0898e2e8"/>
  </result>
  <result>
    <reference value="#dv-5c7fc0898e3c2"/>
  </result>
  <result>
    <reference value="#dv-5c7fc0898e49c"/>
  </result>
  <result>
    <reference value="#dv-5c7fc0898e576"/>
  </result>
  <result>
    <reference value="#dv-5c7fc0898e650"/>
  </result>
  <result>
    <reference value="#dv-5c7fc0898e72a"/>
  </result>
  <result>
    <reference value="#dv-5c7fc0898e804"/>
  </result>
  <result>
    <reference value="#sid-5c7fc0898e8de"/>
  </result>
  <result>
    <reference value="#sid-5c7fc0898e917"/>
  </result>
  <result>
    <reference value="#sid-5c7fc0898e94f"/>
  </result>
  <result>
    <reference value="#sid-5c7fc0898e987"/>
  </result>
  <result>
    <reference value="#sid-5c7fc0898e99f"/>
  </result>
</DiagnosticReport>