<?xml version="1.0" encoding="utf-8"?>
<DiagnosticReport xmlns="http://hl7.org/fhir">
  <id value="dr-5c7fc15ba04a9"/>
  <meta>
    <profile value="http://hl7.org/fhir/uv/genomics-reporting/StructureDefinition/diagnosticreport"/>
  </meta>
  <contained>
    <Observation>
      <id value="rs-5c7fc15ba043e"/>
      <meta>
        <profile value="http://hl7.org/fhir/uv/genomics-reporting/StructureDefinition/obs-region-studied"/>
      </meta>
      <status value="final"/>
      <category>
        <coding>
          <system value="http://terminology.hl7.org/CodeSystem/observation-category"/>
          <code value="laboratory"/>
        </coding>
      </category>
      <code>
        <coding>
          <system value="http://loinc.org"/>
          <code value="TBD-RegionsStudied"/>
          <display value="Region studied"/>
        </coding>
      </code>
      <subject>
        <reference value="Patient/NA19435"/>
      </subject>
      <issued value="2019-03-06T12:47:23+00:00"/>
      <valueCodeableConcept>
        <coding>
          <system value="http://loinc.org"/>
          <code value="LA9633-4"/>
          <display value="Present"/>
        </coding>
      </valueCodeableConcept>
      <component>
        <code>
          <coding>
            <system value="http://loinc.org"/>
            <code value="48018-6"/>
            <display value="Gene studied ID"/>
          </coding>
        </code>
        <valueCodeableConcept>
          <coding>
            <system value="http://www.genenames.org"/>
            <code value="HGNC:12014"/>
            <display value="TPMT"/>
          </coding>
        </valueCodeableConcept>
      </component>
    </Observation>
  </contained>
  <contained>
    <Observation>
      <id value="dv-5c7fc15ba04e6"/>
      <meta>
        <profile value="http://hl7.org/fhir/uv/genomics-reporting/StructureDefinition/obs-described-variant"/>
      </meta>
      <status value="final"/>
      <category>
        <coding>
          <system value="http://terminology.hl7.org/CodeSystem/observation-category"/>
          <code value="laboratory"/>
        </coding>
      </category>
      <code>
        <coding>
          <system value="http://loinc.org"/>
          <code value="TBD-Described"/>
          <display value="Genetic variant assessment"/>
        </coding>
      </code>
      <subject>
        <reference value="Patient/NA19435"/>
      </subject>
      <issued value="2019-03-06T12:47:23+00:00"/>
      <valueCodeableConcept>
        <coding>
          <system value="http://loinc.org"/>
          <code value="LA9633-4"/>
          <display value="Present"/>
        </coding>
      </valueCodeableConcept>
      <component>
        <code>
          <coding>
            <system value="http://loinc.org"/>
            <code value="62374-4"/>
            <display value="Human reference sequence assembly version"/>
          </coding>
        </code>
        <valueCodeableConcept>
          <coding>
            <system value="http://loinc.org"/>
            <code value="LA14029-5"/>
            <display value="GRCh37"/>
          </coding>
        </valueCodeableConcept>
      </component>
      <component>
        <code>
          <coding>
            <system value="http://loinc.org"/>
            <code value="48013-7"/>
            <display value="Genomic reference sequence ID"/>
          </coding>
        </code>
        <valueCodeableConcept>
          <coding>
            <system value="http://www.ncbi.nlm.nih.gov/nuccore"/>
            <code value="NC_000006.11"/>
          </coding>
        </valueCodeableConcept>
      </component>
      <component>
        <code>
          <coding>
            <system value="http://loinc.org"/>
            <code value="53034-5"/>
            <display value="Allelic state"/>
          </coding>
        </code>
        <valueCodeableConcept>
          <coding>
            <system value="http://loinc.org"/>
            <code value="LA6705-3"/>
            <display value="homozygous"/>
          </coding>
        </valueCodeableConcept>
      </component>
      <component>
        <code>
          <coding>
            <system value="http://loinc.org"/>
            <code value="69547-8"/>
            <display value="Genomic Ref allele"/>
          </coding>
        </code>
        <valueString value="T"/>
      </component>
      <component>
        <code>
          <coding>
            <system value="http://loinc.org"/>
            <code value="69551-0"/>
            <display value="Genomic Alt allele"/>
          </coding>
        </code>
        <valueString value="A"/>
      </component>
      <component>
        <code>
          <coding>
            <system value="http://loinc.org"/>
            <code value="tbd-coordinate system"/>
            <display value="Genomic coordinate system"/>
          </coding>
        </code>
        <valueCodeableConcept>
          <coding>
            <system value="http://hl7.org/fhir/uv/genomics-reporting/CodeSystem/genetic-coordinate-system"/>
            <code value="1"/>
          </coding>
        </valueCodeableConcept>
      </component>
      <component>
        <code>
          <coding>
            <system value="http://loinc.org"/>
            <code value="81254-5"/>
            <display value="Genomic Allele start-end"/>
          </coding>
        </code>
        <valueRange>
          <low>
            <value value="18128659"/>
          </low>
        </valueRange>
      </component>
    </Observation>
  </contained>
  <contained>
    <Observation>
      <id value="dv-5c7fc15ba0587"/>
      <meta>
        <profile value="http://hl7.org/fhir/uv/genomics-reporting/StructureDefinition/obs-described-variant"/>
      </meta>
      <status value="final"/>
      <category>
        <coding>
          <system value="http://terminology.hl7.org/CodeSystem/observation-category"/>
          <code value="laboratory"/>
        </coding>
      </category>
      <code>
        <coding>
          <system value="http://loinc.org"/>
          <code value="TBD-Described"/>
          <display value="Genetic variant assessment"/>
        </coding>
      </code>
      <subject>
        <reference value="Patient/NA19435"/>
      </subject>
      <issued value="2019-03-06T12:47:23+00:00"/>
      <valueCodeableConcept>
        <coding>
          <system value="http://loinc.org"/>
          <code value="LA9633-4"/>
          <display value="Present"/>
        </coding>
      </valueCodeableConcept>
      <component>
        <code>
          <coding>
            <system value="http://loinc.org"/>
            <code value="62374-4"/>
            <display value="Human reference sequence assembly version"/>
          </coding>
        </code>
        <valueCodeableConcept>
          <coding>
            <system value="http://loinc.org"/>
            <code value="LA14029-5"/>
            <display value="GRCh37"/>
          </coding>
        </valueCodeableConcept>
      </component>
      <component>
        <code>
          <coding>
            <system value="http://loinc.org"/>
            <code value="48013-7"/>
            <display value="Genomic reference sequence ID"/>
          </coding>
        </code>
        <valueCodeableConcept>
          <coding>
            <system value="http://www.ncbi.nlm.nih.gov/nuccore"/>
            <code value="NC_000006.11"/>
          </coding>
        </valueCodeableConcept>
      </component>
      <component>
        <code>
          <coding>
            <system value="http://loinc.org"/>
            <code value="53034-5"/>
            <display value="Allelic state"/>
          </coding>
        </code>
        <valueCodeableConcept>
          <coding>
            <system value="http://loinc.org"/>
            <code value="LA6706-1"/>
            <display value="heterozygous"/>
          </coding>
        </valueCodeableConcept>
      </component>
      <component>
        <code>
          <coding>
            <system value="http://loinc.org"/>
            <code value="69547-8"/>
            <display value="Genomic Ref allele"/>
          </coding>
        </code>
        <valueString value="G"/>
      </component>
      <component>
        <code>
          <coding>
            <system value="http://loinc.org"/>
            <code value="69551-0"/>
            <display value="Genomic Alt allele"/>
          </coding>
        </code>
        <valueString value="C"/>
      </component>
      <component>
        <code>
          <coding>
            <system value="http://loinc.org"/>
            <code value="tbd-coordinate system"/>
            <display value="Genomic coordinate system"/>
          </coding>
        </code>
        <valueCodeableConcept>
          <coding>
            <system value="http://hl7.org/fhir/uv/genomics-reporting/CodeSystem/genetic-coordinate-system"/>
            <code value="1"/>
          </coding>
        </valueCodeableConcept>
      </component>
      <component>
        <code>
          <coding>
            <system value="http://loinc.org"/>
            <code value="81254-5"/>
            <display value="Genomic Allele start-end"/>
          </coding>
        </code>
        <valueRange>
          <low>
            <value value="18128900"/>
          </low>
        </valueRange>
      </component>
    </Observation>
  </contained>
  <contained>
    <Observation>
      <id value="dv-5c7fc15ba0615"/>
      <meta>
        <profile value="http://hl7.org/fhir/uv/genomics-reporting/StructureDefinition/obs-described-variant"/>
      </meta>
      <status value="final"/>
      <category>
        <coding>
          <system value="http://terminology.hl7.org/CodeSystem/observation-category"/>
          <code value="laboratory"/>
        </coding>
      </category>
      <code>
        <coding>
          <system value="http://loinc.org"/>
          <code value="TBD-Described"/>
          <display value="Genetic variant assessment"/>
        </coding>
      </code>
      <subject>
        <reference value="Patient/NA19435"/>
      </subject>
      <issued value="2019-03-06T12:47:23+00:00"/>
      <valueCodeableConcept>
        <coding>
          <system value="http://loinc.org"/>
          <code value="LA9633-4"/>
          <display value="Present"/>
        </coding>
      </valueCodeableConcept>
      <component>
        <code>
          <coding>
            <system value="http://loinc.org"/>
            <code value="62374-4"/>
            <display value="Human reference sequence assembly version"/>
          </coding>
        </code>
        <valueCodeableConcept>
          <coding>
            <system value="http://loinc.org"/>
            <code value="LA14029-5"/>
            <display value="GRCh37"/>
          </coding>
        </valueCodeableConcept>
      </component>
      <component>
        <code>
          <coding>
            <system value="http://loinc.org"/>
            <code value="48013-7"/>
            <display value="Genomic reference sequence ID"/>
          </coding>
        </code>
        <valueCodeableConcept>
          <coding>
            <system value="http://www.ncbi.nlm.nih.gov/nuccore"/>
            <code value="NC_000006.11"/>
          </coding>
        </valueCodeableConcept>
      </component>
      <component>
        <code>
          <coding>
            <system value="http://loinc.org"/>
            <code value="53034-5"/>
            <display value="Allelic state"/>
          </coding>
        </code>
        <valueCodeableConcept>
          <coding>
            <system value="http://loinc.org"/>
            <code value="LA6705-3"/>
            <display value="homozygous"/>
          </coding>
        </valueCodeableConcept>
      </component>
      <component>
        <code>
          <coding>
            <system value="http://loinc.org"/>
            <code value="69547-8"/>
            <display value="Genomic Ref allele"/>
          </coding>
        </code>
        <valueString value="T"/>
      </component>
      <component>
        <code>
          <coding>
            <system value="http://loinc.org"/>
            <code value="69551-0"/>
            <display value="Genomic Alt allele"/>
          </coding>
        </code>
        <valueString value="G"/>
      </component>
      <component>
        <code>
          <coding>
            <system value="http://loinc.org"/>
            <code value="tbd-coordinate system"/>
            <display value="Genomic coordinate system"/>
          </coding>
        </code>
        <valueCodeableConcept>
          <coding>
            <system value="http://hl7.org/fhir/uv/genomics-reporting/CodeSystem/genetic-coordinate-system"/>
            <code value="1"/>
          </coding>
        </valueCodeableConcept>
      </component>
      <component>
        <code>
          <coding>
            <system value="http://loinc.org"/>
            <code value="81254-5"/>
            <display value="Genomic Allele start-end"/>
          </coding>
        </code>
        <valueRange>
          <low>
            <value value="18128999"/>
          </low>
        </valueRange>
      </component>
    </Observation>
  </contained>
  <contained>
    <Observation>
      <id value="dv-5c7fc15ba06a0"/>
      <meta>
        <profile value="http://hl7.org/fhir/uv/genomics-reporting/StructureDefinition/obs-described-variant"/>
      </meta>
      <status value="final"/>
      <category>
        <coding>
          <system value="http://terminology.hl7.org/CodeSystem/observation-category"/>
          <code value="laboratory"/>
        </coding>
      </category>
      <code>
        <coding>
          <system value="http://loinc.org"/>
          <code value="TBD-Described"/>
          <display value="Genetic variant assessment"/>
        </coding>
      </code>
      <subject>
        <reference value="Patient/NA19435"/>
      </subject>
      <issued value="2019-03-06T12:47:23+00:00"/>
      <valueCodeableConcept>
        <coding>
          <system value="http://loinc.org"/>
          <code value="LA9633-4"/>
          <display value="Present"/>
        </coding>
      </valueCodeableConcept>
      <component>
        <code>
          <coding>
            <system value="http://loinc.org"/>
            <code value="62374-4"/>
            <display value="Human reference sequence assembly version"/>
          </coding>
        </code>
        <valueCodeableConcept>
          <coding>
            <system value="http://loinc.org"/>
            <code value="LA14029-5"/>
            <display value="GRCh37"/>
          </coding>
        </valueCodeableConcept>
      </component>
      <component>
        <code>
          <coding>
            <system value="http://loinc.org"/>
            <code value="48013-7"/>
            <display value="Genomic reference sequence ID"/>
          </coding>
        </code>
        <valueCodeableConcept>
          <coding>
            <system value="http://www.ncbi.nlm.nih.gov/nuccore"/>
            <code value="NC_000006.11"/>
          </coding>
        </valueCodeableConcept>
      </component>
      <component>
        <code>
          <coding>
            <system value="http://loinc.org"/>
            <code value="53034-5"/>
            <display value="Allelic state"/>
          </coding>
        </code>
        <valueCodeableConcept>
          <coding>
            <system value="http://loinc.org"/>
            <code value="LA6706-1"/>
            <display value="heterozygous"/>
          </coding>
        </valueCodeableConcept>
      </component>
      <component>
        <code>
          <coding>
            <system value="http://loinc.org"/>
            <code value="69547-8"/>
            <display value="Genomic Ref allele"/>
          </coding>
        </code>
        <valueString value="C"/>
      </component>
      <component>
        <code>
          <coding>
            <system value="http://loinc.org"/>
            <code value="69551-0"/>
            <display value="Genomic Alt allele"/>
          </coding>
        </code>
        <valueString value="T"/>
      </component>
      <component>
        <code>
          <coding>
            <system value="http://loinc.org"/>
            <code value="tbd-coordinate system"/>
            <display value="Genomic coordinate system"/>
          </coding>
        </code>
        <valueCodeableConcept>
          <coding>
            <system value="http://hl7.org/fhir/uv/genomics-reporting/CodeSystem/genetic-coordinate-system"/>
            <code value="1"/>
          </coding>
        </valueCodeableConcept>
      </component>
      <component>
        <code>
          <coding>
            <system value="http://loinc.org"/>
            <code value="81254-5"/>
            <display value="Genomic Allele start-end"/>
          </coding>
        </code>
        <valueRange>
          <low>
            <value value="18129295"/>
          </low>
        </valueRange>
      </component>
    </Observation>
  </contained>
  <contained>
    <Observation>
      <id value="dv-5c7fc15ba072b"/>
      <meta>
        <profile value="http://hl7.org/fhir/uv/genomics-reporting/StructureDefinition/obs-described-variant"/>
      </meta>
      <status value="final"/>
      <category>
        <coding>
          <system value="http://terminology.hl7.org/CodeSystem/observation-category"/>
          <code value="laboratory"/>
        </coding>
      </category>
      <code>
        <coding>
          <system value="http://loinc.org"/>
          <code value="TBD-Described"/>
          <display value="Genetic variant assessment"/>
        </coding>
      </code>
      <subject>
        <reference value="Patient/NA19435"/>
      </subject>
      <issued value="2019-03-06T12:47:23+00:00"/>
      <valueCodeableConcept>
        <coding>
          <system value="http://loinc.org"/>
          <code value="LA9633-4"/>
          <display value="Present"/>
        </coding>
      </valueCodeableConcept>
      <component>
        <code>
          <coding>
            <system value="http://loinc.org"/>
            <code value="62374-4"/>
            <display value="Human reference sequence assembly version"/>
          </coding>
        </code>
        <valueCodeableConcept>
          <coding>
            <system value="http://loinc.org"/>
            <code value="LA14029-5"/>
            <display value="GRCh37"/>
          </coding>
        </valueCodeableConcept>
      </component>
      <component>
        <code>
          <coding>
            <system value="http://loinc.org"/>
            <code value="48013-7"/>
            <display value="Genomic reference sequence ID"/>
          </coding>
        </code>
        <valueCodeableConcept>
          <coding>
            <system value="http://www.ncbi.nlm.nih.gov/nuccore"/>
            <code value="NC_000006.11"/>
          </coding>
        </valueCodeableConcept>
      </component>
      <component>
        <code>
          <coding>
            <system value="http://loinc.org"/>
            <code value="53034-5"/>
            <display value="Allelic state"/>
          </coding>
        </code>
        <valueCodeableConcept>
          <coding>
            <system value="http://loinc.org"/>
            <code value="LA6706-1"/>
            <display value="heterozygous"/>
          </coding>
        </valueCodeableConcept>
      </component>
      <component>
        <code>
          <coding>
            <system value="http://loinc.org"/>
            <code value="69547-8"/>
            <display value="Genomic Ref allele"/>
          </coding>
        </code>
        <valueString value="C"/>
      </component>
      <component>
        <code>
          <coding>
            <system value="http://loinc.org"/>
            <code value="69551-0"/>
            <display value="Genomic Alt allele"/>
          </coding>
        </code>
        <valueString value="A"/>
      </component>
      <component>
        <code>
          <coding>
            <system value="http://loinc.org"/>
            <code value="tbd-coordinate system"/>
            <display value="Genomic coordinate system"/>
          </coding>
        </code>
        <valueCodeableConcept>
          <coding>
            <system value="http://hl7.org/fhir/uv/genomics-reporting/CodeSystem/genetic-coordinate-system"/>
            <code value="1"/>
          </coding>
        </valueCodeableConcept>
      </component>
      <component>
        <code>
          <coding>
            <system value="http://loinc.org"/>
            <code value="81254-5"/>
            <display value="Genomic Allele start-end"/>
          </coding>
        </code>
        <valueRange>
          <low>
            <value value="18131464"/>
          </low>
        </valueRange>
      </component>
    </Observation>
  </contained>
  <contained>
    <Observation>
      <id value="dv-5c7fc15ba07b5"/>
      <meta>
        <profile value="http://hl7.org/fhir/uv/genomics-reporting/StructureDefinition/obs-described-variant"/>
      </meta>
      <status value="final"/>
      <category>
        <coding>
          <system value="http://terminology.hl7.org/CodeSystem/observation-category"/>
          <code value="laboratory"/>
        </coding>
      </category>
      <code>
        <coding>
          <system value="http://loinc.org"/>
          <code value="TBD-Described"/>
          <display value="Genetic variant assessment"/>
        </coding>
      </code>
      <subject>
        <reference value="Patient/NA19435"/>
      </subject>
      <issued value="2019-03-06T12:47:23+00:00"/>
      <valueCodeableConcept>
        <coding>
          <system value="http://loinc.org"/>
          <code value="LA9633-4"/>
          <display value="Present"/>
        </coding>
      </valueCodeableConcept>
      <component>
        <code>
          <coding>
            <system value="http://loinc.org"/>
            <code value="62374-4"/>
            <display value="Human reference sequence assembly version"/>
          </coding>
        </code>
        <valueCodeableConcept>
          <coding>
            <system value="http://loinc.org"/>
            <code value="LA14029-5"/>
            <display value="GRCh37"/>
          </coding>
        </valueCodeableConcept>
      </component>
      <component>
        <code>
          <coding>
            <system value="http://loinc.org"/>
            <code value="48013-7"/>
            <display value="Genomic reference sequence ID"/>
          </coding>
        </code>
        <valueCodeableConcept>
          <coding>
            <system value="http://www.ncbi.nlm.nih.gov/nuccore"/>
            <code value="NC_000006.11"/>
          </coding>
        </valueCodeableConcept>
      </component>
      <component>
        <code>
          <coding>
            <system value="http://loinc.org"/>
            <code value="53034-5"/>
            <display value="Allelic state"/>
          </coding>
        </code>
        <valueCodeableConcept>
          <coding>
            <system value="http://loinc.org"/>
            <code value="LA6706-1"/>
            <display value="heterozygous"/>
          </coding>
        </valueCodeableConcept>
      </component>
      <component>
        <code>
          <coding>
            <system value="http://loinc.org"/>
            <code value="69547-8"/>
            <display value="Genomic Ref allele"/>
          </coding>
        </code>
        <valueString value="T"/>
      </component>
      <component>
        <code>
          <coding>
            <system value="http://loinc.org"/>
            <code value="69551-0"/>
            <display value="Genomic Alt allele"/>
          </coding>
        </code>
        <valueString value="A"/>
      </component>
      <component>
        <code>
          <coding>
            <system value="http://loinc.org"/>
            <code value="tbd-coordinate system"/>
            <display value="Genomic coordinate system"/>
          </coding>
        </code>
        <valueCodeableConcept>
          <coding>
            <system value="http://hl7.org/fhir/uv/genomics-reporting/CodeSystem/genetic-coordinate-system"/>
            <code value="1"/>
          </coding>
        </valueCodeableConcept>
      </component>
      <component>
        <code>
          <coding>
            <system value="http://loinc.org"/>
            <code value="81254-5"/>
            <display value="Genomic Allele start-end"/>
          </coding>
        </code>
        <valueRange>
          <low>
            <value value="18132047"/>
          </low>
        </valueRange>
      </component>
    </Observation>
  </contained>
  <contained>
    <Observation>
      <id value="dv-5c7fc15ba083f"/>
      <meta>
        <profile value="http://hl7.org/fhir/uv/genomics-reporting/StructureDefinition/obs-described-variant"/>
      </meta>
      <status value="final"/>
      <category>
        <coding>
          <system value="http://terminology.hl7.org/CodeSystem/observation-category"/>
          <code value="laboratory"/>
        </coding>
      </category>
      <code>
        <coding>
          <system value="http://loinc.org"/>
          <code value="TBD-Described"/>
          <display value="Genetic variant assessment"/>
        </coding>
      </code>
      <subject>
        <reference value="Patient/NA19435"/>
      </subject>
      <issued value="2019-03-06T12:47:23+00:00"/>
      <valueCodeableConcept>
        <coding>
          <system value="http://loinc.org"/>
          <code value="LA9633-4"/>
          <display value="Present"/>
        </coding>
      </valueCodeableConcept>
      <component>
        <code>
          <coding>
            <system value="http://loinc.org"/>
            <code value="62374-4"/>
            <display value="Human reference sequence assembly version"/>
          </coding>
        </code>
        <valueCodeableConcept>
          <coding>
            <system value="http://loinc.org"/>
            <code value="LA14029-5"/>
            <display value="GRCh37"/>
          </coding>
        </valueCodeableConcept>
      </component>
      <component>
        <code>
          <coding>
            <system value="http://loinc.org"/>
            <code value="48013-7"/>
            <display value="Genomic reference sequence ID"/>
          </coding>
        </code>
        <valueCodeableConcept>
          <coding>
            <system value="http://www.ncbi.nlm.nih.gov/nuccore"/>
            <code value="NC_000006.11"/>
          </coding>
        </valueCodeableConcept>
      </component>
      <component>
        <code>
          <coding>
            <system value="http://loinc.org"/>
            <code value="53034-5"/>
            <display value="Allelic state"/>
          </coding>
        </code>
        <valueCodeableConcept>
          <coding>
            <system value="http://loinc.org"/>
            <code value="LA6706-1"/>
            <display value="heterozygous"/>
          </coding>
        </valueCodeableConcept>
      </component>
      <component>
        <code>
          <coding>
            <system value="http://loinc.org"/>
            <code value="69547-8"/>
            <display value="Genomic Ref allele"/>
          </coding>
        </code>
        <valueString value="A"/>
      </component>
      <component>
        <code>
          <coding>
            <system value="http://loinc.org"/>
            <code value="69551-0"/>
            <display value="Genomic Alt allele"/>
          </coding>
        </code>
        <valueString value="C"/>
      </component>
      <component>
        <code>
          <coding>
            <system value="http://loinc.org"/>
            <code value="tbd-coordinate system"/>
            <display value="Genomic coordinate system"/>
          </coding>
        </code>
        <valueCodeableConcept>
          <coding>
            <system value="http://hl7.org/fhir/uv/genomics-reporting/CodeSystem/genetic-coordinate-system"/>
            <code value="1"/>
          </coding>
        </valueCodeableConcept>
      </component>
      <component>
        <code>
          <coding>
            <system value="http://loinc.org"/>
            <code value="81254-5"/>
            <display value="Genomic Allele start-end"/>
          </coding>
        </code>
        <valueRange>
          <low>
            <value value="18132782"/>
          </low>
        </valueRange>
      </component>
    </Observation>
  </contained>
  <contained>
    <Observation>
      <id value="dv-5c7fc15ba08c9"/>
      <meta>
        <profile value="http://hl7.org/fhir/uv/genomics-reporting/StructureDefinition/obs-described-variant"/>
      </meta>
      <status value="final"/>
      <category>
        <coding>
          <system value="http://terminology.hl7.org/CodeSystem/observation-category"/>
          <code value="laboratory"/>
        </coding>
      </category>
      <code>
        <coding>
          <system value="http://loinc.org"/>
          <code value="TBD-Described"/>
          <display value="Genetic variant assessment"/>
        </coding>
      </code>
      <subject>
        <reference value="Patient/NA19435"/>
      </subject>
      <issued value="2019-03-06T12:47:23+00:00"/>
      <valueCodeableConcept>
        <coding>
          <system value="http://loinc.org"/>
          <code value="LA9633-4"/>
          <display value="Present"/>
        </coding>
      </valueCodeableConcept>
      <component>
        <code>
          <coding>
            <system value="http://loinc.org"/>
            <code value="62374-4"/>
            <display value="Human reference sequence assembly version"/>
          </coding>
        </code>
        <valueCodeableConcept>
          <coding>
            <system value="http://loinc.org"/>
            <code value="LA14029-5"/>
            <display value="GRCh37"/>
          </coding>
        </valueCodeableConcept>
      </component>
      <component>
        <code>
          <coding>
            <system value="http://loinc.org"/>
            <code value="48013-7"/>
            <display value="Genomic reference sequence ID"/>
          </coding>
        </code>
        <valueCodeableConcept>
          <coding>
            <system value="http://www.ncbi.nlm.nih.gov/nuccore"/>
            <code value="NC_000006.11"/>
          </coding>
        </valueCodeableConcept>
      </component>
      <component>
        <code>
          <coding>
            <system value="http://loinc.org"/>
            <code value="53034-5"/>
            <display value="Allelic state"/>
          </coding>
        </code>
        <valueCodeableConcept>
          <coding>
            <system value="http://loinc.org"/>
            <code value="LA6705-3"/>
            <display value="homozygous"/>
          </coding>
        </valueCodeableConcept>
      </component>
      <component>
        <code>
          <coding>
            <system value="http://loinc.org"/>
            <code value="69547-8"/>
            <display value="Genomic Ref allele"/>
          </coding>
        </code>
        <valueString value="C"/>
      </component>
      <component>
        <code>
          <coding>
            <system value="http://loinc.org"/>
            <code value="69551-0"/>
            <display value="Genomic Alt allele"/>
          </coding>
        </code>
        <valueString value="T"/>
      </component>
      <component>
        <code>
          <coding>
            <system value="http://loinc.org"/>
            <code value="tbd-coordinate system"/>
            <display value="Genomic coordinate system"/>
          </coding>
        </code>
        <valueCodeableConcept>
          <coding>
            <system value="http://hl7.org/fhir/uv/genomics-reporting/CodeSystem/genetic-coordinate-system"/>
            <code value="1"/>
          </coding>
        </valueCodeableConcept>
      </component>
      <component>
        <code>
          <coding>
            <system value="http://loinc.org"/>
            <code value="81254-5"/>
            <display value="Genomic Allele start-end"/>
          </coding>
        </code>
        <valueRange>
          <low>
            <value value="18132822"/>
          </low>
        </valueRange>
      </component>
    </Observation>
  </contained>
  <contained>
    <Observation>
      <id value="dv-5c7fc15ba0953"/>
      <meta>
        <profile value="http://hl7.org/fhir/uv/genomics-reporting/StructureDefinition/obs-described-variant"/>
      </meta>
      <status value="final"/>
      <category>
        <coding>
          <system value="http://terminology.hl7.org/CodeSystem/observation-category"/>
          <code value="laboratory"/>
        </coding>
      </category>
      <code>
        <coding>
          <system value="http://loinc.org"/>
          <code value="TBD-Described"/>
          <display value="Genetic variant assessment"/>
        </coding>
      </code>
      <subject>
        <reference value="Patient/NA19435"/>
      </subject>
      <issued value="2019-03-06T12:47:23+00:00"/>
      <valueCodeableConcept>
        <coding>
          <system value="http://loinc.org"/>
          <code value="LA9633-4"/>
          <display value="Present"/>
        </coding>
      </valueCodeableConcept>
      <component>
        <code>
          <coding>
            <system value="http://loinc.org"/>
            <code value="62374-4"/>
            <display value="Human reference sequence assembly version"/>
          </coding>
        </code>
        <valueCodeableConcept>
          <coding>
            <system value="http://loinc.org"/>
            <code value="LA14029-5"/>
            <display value="GRCh37"/>
          </coding>
        </valueCodeableConcept>
      </component>
      <component>
        <code>
          <coding>
            <system value="http://loinc.org"/>
            <code value="48013-7"/>
            <display value="Genomic reference sequence ID"/>
          </coding>
        </code>
        <valueCodeableConcept>
          <coding>
            <system value="http://www.ncbi.nlm.nih.gov/nuccore"/>
            <code value="NC_000006.11"/>
          </coding>
        </valueCodeableConcept>
      </component>
      <component>
        <code>
          <coding>
            <system value="http://loinc.org"/>
            <code value="53034-5"/>
            <display value="Allelic state"/>
          </coding>
        </code>
        <valueCodeableConcept>
          <coding>
            <system value="http://loinc.org"/>
            <code value="LA6706-1"/>
            <display value="heterozygous"/>
          </coding>
        </valueCodeableConcept>
      </component>
      <component>
        <code>
          <coding>
            <system value="http://loinc.org"/>
            <code value="69547-8"/>
            <display value="Genomic Ref allele"/>
          </coding>
        </code>
        <valueString value="G"/>
      </component>
      <component>
        <code>
          <coding>
            <system value="http://loinc.org"/>
            <code value="69551-0"/>
            <display value="Genomic Alt allele"/>
          </coding>
        </code>
        <valueString value="A"/>
      </component>
      <component>
        <code>
          <coding>
            <system value="http://loinc.org"/>
            <code value="tbd-coordinate system"/>
            <display value="Genomic coordinate system"/>
          </coding>
        </code>
        <valueCodeableConcept>
          <coding>
            <system value="http://hl7.org/fhir/uv/genomics-reporting/CodeSystem/genetic-coordinate-system"/>
            <code value="1"/>
          </coding>
        </valueCodeableConcept>
      </component>
      <component>
        <code>
          <coding>
            <system value="http://loinc.org"/>
            <code value="81254-5"/>
            <display value="Genomic Allele start-end"/>
          </coding>
        </code>
        <valueRange>
          <low>
            <value value="18133256"/>
          </low>
        </valueRange>
      </component>
    </Observation>
  </contained>
  <contained>
    <Observation>
      <id value="dv-5c7fc15ba09dd"/>
      <meta>
        <profile value="http://hl7.org/fhir/uv/genomics-reporting/StructureDefinition/obs-described-variant"/>
      </meta>
      <status value="final"/>
      <category>
        <coding>
          <system value="http://terminology.hl7.org/CodeSystem/observation-category"/>
          <code value="laboratory"/>
        </coding>
      </category>
      <code>
        <coding>
          <system value="http://loinc.org"/>
          <code value="TBD-Described"/>
          <display value="Genetic variant assessment"/>
        </coding>
      </code>
      <subject>
        <reference value="Patient/NA19435"/>
      </subject>
      <issued value="2019-03-06T12:47:23+00:00"/>
      <valueCodeableConcept>
        <coding>
          <system value="http://loinc.org"/>
          <code value="LA9633-4"/>
          <display value="Present"/>
        </coding>
      </valueCodeableConcept>
      <component>
        <code>
          <coding>
            <system value="http://loinc.org"/>
            <code value="62374-4"/>
            <display value="Human reference sequence assembly version"/>
          </coding>
        </code>
        <valueCodeableConcept>
          <coding>
            <system value="http://loinc.org"/>
            <code value="LA14029-5"/>
            <display value="GRCh37"/>
          </coding>
        </valueCodeableConcept>
      </component>
      <component>
        <code>
          <coding>
            <system value="http://loinc.org"/>
            <code value="48013-7"/>
            <display value="Genomic reference sequence ID"/>
          </coding>
        </code>
        <valueCodeableConcept>
          <coding>
            <system value="http://www.ncbi.nlm.nih.gov/nuccore"/>
            <code value="NC_000006.11"/>
          </coding>
        </valueCodeableConcept>
      </component>
      <component>
        <code>
          <coding>
            <system value="http://loinc.org"/>
            <code value="53034-5"/>
            <display value="Allelic state"/>
          </coding>
        </code>
        <valueCodeableConcept>
          <coding>
            <system value="http://loinc.org"/>
            <code value="LA6706-1"/>
            <display value="heterozygous"/>
          </coding>
        </valueCodeableConcept>
      </component>
      <component>
        <code>
          <coding>
            <system value="http://loinc.org"/>
            <code value="69547-8"/>
            <display value="Genomic Ref allele"/>
          </coding>
        </code>
        <valueString value="AC"/>
      </component>
      <component>
        <code>
          <coding>
            <system value="http://loinc.org"/>
            <code value="69551-0"/>
            <display value="Genomic Alt allele"/>
          </coding>
        </code>
        <valueString value="AAA"/>
      </component>
      <component>
        <code>
          <coding>
            <system value="http://loinc.org"/>
            <code value="tbd-coordinate system"/>
            <display value="Genomic coordinate system"/>
          </coding>
        </code>
        <valueCodeableConcept>
          <coding>
            <system value="http://hl7.org/fhir/uv/genomics-reporting/CodeSystem/genetic-coordinate-system"/>
            <code value="1"/>
          </coding>
        </valueCodeableConcept>
      </component>
      <component>
        <code>
          <coding>
            <system value="http://loinc.org"/>
            <code value="81254-5"/>
            <display value="Genomic Allele start-end"/>
          </coding>
        </code>
        <valueRange>
          <low>
            <value value="18134020"/>
          </low>
        </valueRange>
      </component>
    </Observation>
  </contained>
  <contained>
    <Observation>
      <id value="dv-5c7fc15ba0a68"/>
      <meta>
        <profile value="http://hl7.org/fhir/uv/genomics-reporting/StructureDefinition/obs-described-variant"/>
      </meta>
      <status value="final"/>
      <category>
        <coding>
          <system value="http://terminology.hl7.org/CodeSystem/observation-category"/>
          <code value="laboratory"/>
        </coding>
      </category>
      <code>
        <coding>
          <system value="http://loinc.org"/>
          <code value="TBD-Described"/>
          <display value="Genetic variant assessment"/>
        </coding>
      </code>
      <subject>
        <reference value="Patient/NA19435"/>
      </subject>
      <issued value="2019-03-06T12:47:23+00:00"/>
      <valueCodeableConcept>
        <coding>
          <system value="http://loinc.org"/>
          <code value="LA9633-4"/>
          <display value="Present"/>
        </coding>
      </valueCodeableConcept>
      <component>
        <code>
          <coding>
            <system value="http://loinc.org"/>
            <code value="62374-4"/>
            <display value="Human reference sequence assembly version"/>
          </coding>
        </code>
        <valueCodeableConcept>
          <coding>
            <system value="http://loinc.org"/>
            <code value="LA14029-5"/>
            <display value="GRCh37"/>
          </coding>
        </valueCodeableConcept>
      </component>
      <component>
        <code>
          <coding>
            <system value="http://loinc.org"/>
            <code value="48013-7"/>
            <display value="Genomic reference sequence ID"/>
          </coding>
        </code>
        <valueCodeableConcept>
          <coding>
            <system value="http://www.ncbi.nlm.nih.gov/nuccore"/>
            <code value="NC_000006.11"/>
          </coding>
        </valueCodeableConcept>
      </component>
      <component>
        <code>
          <coding>
            <system value="http://loinc.org"/>
            <code value="53034-5"/>
            <display value="Allelic state"/>
          </coding>
        </code>
        <valueCodeableConcept>
          <coding>
            <system value="http://loinc.org"/>
            <code value="LA6706-1"/>
            <display value="heterozygous"/>
          </coding>
        </valueCodeableConcept>
      </component>
      <component>
        <code>
          <coding>
            <system value="http://loinc.org"/>
            <code value="69547-8"/>
            <display value="Genomic Ref allele"/>
          </coding>
        </code>
        <valueString value="C"/>
      </component>
      <component>
        <code>
          <coding>
            <system value="http://loinc.org"/>
            <code value="69551-0"/>
            <display value="Genomic Alt allele"/>
          </coding>
        </code>
        <valueString value="CA"/>
      </component>
      <component>
        <code>
          <coding>
            <system value="http://loinc.org"/>
            <code value="tbd-coordinate system"/>
            <display value="Genomic coordinate system"/>
          </coding>
        </code>
        <valueCodeableConcept>
          <coding>
            <system value="http://hl7.org/fhir/uv/genomics-reporting/CodeSystem/genetic-coordinate-system"/>
            <code value="1"/>
          </coding>
        </valueCodeableConcept>
      </component>
      <component>
        <code>
          <coding>
            <system value="http://loinc.org"/>
            <code value="81254-5"/>
            <display value="Genomic Allele start-end"/>
          </coding>
        </code>
        <valueRange>
          <low>
            <value value="18134692"/>
          </low>
        </valueRange>
      </component>
    </Observation>
  </contained>
  <contained>
    <Observation>
      <id value="dv-5c7fc15ba0af2"/>
      <meta>
        <profile value="http://hl7.org/fhir/uv/genomics-reporting/StructureDefinition/obs-described-variant"/>
      </meta>
      <status value="final"/>
      <category>
        <coding>
          <system value="http://terminology.hl7.org/CodeSystem/observation-category"/>
          <code value="laboratory"/>
        </coding>
      </category>
      <code>
        <coding>
          <system value="http://loinc.org"/>
          <code value="TBD-Described"/>
          <display value="Genetic variant assessment"/>
        </coding>
      </code>
      <subject>
        <reference value="Patient/NA19435"/>
      </subject>
      <issued value="2019-03-06T12:47:23+00:00"/>
      <valueCodeableConcept>
        <coding>
          <system value="http://loinc.org"/>
          <code value="LA9633-4"/>
          <display value="Present"/>
        </coding>
      </valueCodeableConcept>
      <component>
        <code>
          <coding>
            <system value="http://loinc.org"/>
            <code value="62374-4"/>
            <display value="Human reference sequence assembly version"/>
          </coding>
        </code>
        <valueCodeableConcept>
          <coding>
            <system value="http://loinc.org"/>
            <code value="LA14029-5"/>
            <display value="GRCh37"/>
          </coding>
        </valueCodeableConcept>
      </component>
      <component>
        <code>
          <coding>
            <system value="http://loinc.org"/>
            <code value="48013-7"/>
            <display value="Genomic reference sequence ID"/>
          </coding>
        </code>
        <valueCodeableConcept>
          <coding>
            <system value="http://www.ncbi.nlm.nih.gov/nuccore"/>
            <code value="NC_000006.11"/>
          </coding>
        </valueCodeableConcept>
      </component>
      <component>
        <code>
          <coding>
            <system value="http://loinc.org"/>
            <code value="53034-5"/>
            <display value="Allelic state"/>
          </coding>
        </code>
        <valueCodeableConcept>
          <coding>
            <system value="http://loinc.org"/>
            <code value="LA6705-3"/>
            <display value="homozygous"/>
          </coding>
        </valueCodeableConcept>
      </component>
      <component>
        <code>
          <coding>
            <system value="http://loinc.org"/>
            <code value="69547-8"/>
            <display value="Genomic Ref allele"/>
          </coding>
        </code>
        <valueString value="T"/>
      </component>
      <component>
        <code>
          <coding>
            <system value="http://loinc.org"/>
            <code value="69551-0"/>
            <display value="Genomic Alt allele"/>
          </coding>
        </code>
        <valueString value="C"/>
      </component>
      <component>
        <code>
          <coding>
            <system value="http://loinc.org"/>
            <code value="tbd-coordinate system"/>
            <display value="Genomic coordinate system"/>
          </coding>
        </code>
        <valueCodeableConcept>
          <coding>
            <system value="http://hl7.org/fhir/uv/genomics-reporting/CodeSystem/genetic-coordinate-system"/>
            <code value="1"/>
          </coding>
        </valueCodeableConcept>
      </component>
      <component>
        <code>
          <coding>
            <system value="http://loinc.org"/>
            <code value="81254-5"/>
            <display value="Genomic Allele start-end"/>
          </coding>
        </code>
        <valueRange>
          <low>
            <value value="18135178"/>
          </low>
        </valueRange>
      </component>
    </Observation>
  </contained>
  <contained>
    <Observation>
      <id value="dv-5c7fc15ba0b7c"/>
      <meta>
        <profile value="http://hl7.org/fhir/uv/genomics-reporting/StructureDefinition/obs-described-variant"/>
      </meta>
      <status value="final"/>
      <category>
        <coding>
          <system value="http://terminology.hl7.org/CodeSystem/observation-category"/>
          <code value="laboratory"/>
        </coding>
      </category>
      <code>
        <coding>
          <system value="http://loinc.org"/>
          <code value="TBD-Described"/>
          <display value="Genetic variant assessment"/>
        </coding>
      </code>
      <subject>
        <reference value="Patient/NA19435"/>
      </subject>
      <issued value="2019-03-06T12:47:23+00:00"/>
      <valueCodeableConcept>
        <coding>
          <system value="http://loinc.org"/>
          <code value="LA9633-4"/>
          <display value="Present"/>
        </coding>
      </valueCodeableConcept>
      <component>
        <code>
          <coding>
            <system value="http://loinc.org"/>
            <code value="62374-4"/>
            <display value="Human reference sequence assembly version"/>
          </coding>
        </code>
        <valueCodeableConcept>
          <coding>
            <system value="http://loinc.org"/>
            <code value="LA14029-5"/>
            <display value="GRCh37"/>
          </coding>
        </valueCodeableConcept>
      </component>
      <component>
        <code>
          <coding>
            <system value="http://loinc.org"/>
            <code value="48013-7"/>
            <display value="Genomic reference sequence ID"/>
          </coding>
        </code>
        <valueCodeableConcept>
          <coding>
            <system value="http://www.ncbi.nlm.nih.gov/nuccore"/>
            <code value="NC_000006.11"/>
          </coding>
        </valueCodeableConcept>
      </component>
      <component>
        <code>
          <coding>
            <system value="http://loinc.org"/>
            <code value="53034-5"/>
            <display value="Allelic state"/>
          </coding>
        </code>
        <valueCodeableConcept>
          <coding>
            <system value="http://loinc.org"/>
            <code value="LA6706-1"/>
            <display value="heterozygous"/>
          </coding>
        </valueCodeableConcept>
      </component>
      <component>
        <code>
          <coding>
            <system value="http://loinc.org"/>
            <code value="69547-8"/>
            <display value="Genomic Ref allele"/>
          </coding>
        </code>
        <valueString value="T"/>
      </component>
      <component>
        <code>
          <coding>
            <system value="http://loinc.org"/>
            <code value="69551-0"/>
            <display value="Genomic Alt allele"/>
          </coding>
        </code>
        <valueString value="C"/>
      </component>
      <component>
        <code>
          <coding>
            <system value="http://loinc.org"/>
            <code value="tbd-coordinate system"/>
            <display value="Genomic coordinate system"/>
          </coding>
        </code>
        <valueCodeableConcept>
          <coding>
            <system value="http://hl7.org/fhir/uv/genomics-reporting/CodeSystem/genetic-coordinate-system"/>
            <code value="1"/>
          </coding>
        </valueCodeableConcept>
      </component>
      <component>
        <code>
          <coding>
            <system value="http://loinc.org"/>
            <code value="81254-5"/>
            <display value="Genomic Allele start-end"/>
          </coding>
        </code>
        <valueRange>
          <low>
            <value value="18135683"/>
          </low>
        </valueRange>
      </component>
    </Observation>
  </contained>
  <contained>
    <Observation>
      <id value="dv-5c7fc15ba0c07"/>
      <meta>
        <profile value="http://hl7.org/fhir/uv/genomics-reporting/StructureDefinition/obs-described-variant"/>
      </meta>
      <status value="final"/>
      <category>
        <coding>
          <system value="http://terminology.hl7.org/CodeSystem/observation-category"/>
          <code value="laboratory"/>
        </coding>
      </category>
      <code>
        <coding>
          <system value="http://loinc.org"/>
          <code value="TBD-Described"/>
          <display value="Genetic variant assessment"/>
        </coding>
      </code>
      <subject>
        <reference value="Patient/NA19435"/>
      </subject>
      <issued value="2019-03-06T12:47:23+00:00"/>
      <valueCodeableConcept>
        <coding>
          <system value="http://loinc.org"/>
          <code value="LA9633-4"/>
          <display value="Present"/>
        </coding>
      </valueCodeableConcept>
      <component>
        <code>
          <coding>
            <system value="http://loinc.org"/>
            <code value="62374-4"/>
            <display value="Human reference sequence assembly version"/>
          </coding>
        </code>
        <valueCodeableConcept>
          <coding>
            <system value="http://loinc.org"/>
            <code value="LA14029-5"/>
            <display value="GRCh37"/>
          </coding>
        </valueCodeableConcept>
      </component>
      <component>
        <code>
          <coding>
            <system value="http://loinc.org"/>
            <code value="48013-7"/>
            <display value="Genomic reference sequence ID"/>
          </coding>
        </code>
        <valueCodeableConcept>
          <coding>
            <system value="http://www.ncbi.nlm.nih.gov/nuccore"/>
            <code value="NC_000006.11"/>
          </coding>
        </valueCodeableConcept>
      </component>
      <component>
        <code>
          <coding>
            <system value="http://loinc.org"/>
            <code value="53034-5"/>
            <display value="Allelic state"/>
          </coding>
        </code>
        <valueCodeableConcept>
          <coding>
            <system value="http://loinc.org"/>
            <code value="LA6706-1"/>
            <display value="heterozygous"/>
          </coding>
        </valueCodeableConcept>
      </component>
      <component>
        <code>
          <coding>
            <system value="http://loinc.org"/>
            <code value="69547-8"/>
            <display value="Genomic Ref allele"/>
          </coding>
        </code>
        <valueString value="T"/>
      </component>
      <component>
        <code>
          <coding>
            <system value="http://loinc.org"/>
            <code value="69551-0"/>
            <display value="Genomic Alt allele"/>
          </coding>
        </code>
        <valueString value="C"/>
      </component>
      <component>
        <code>
          <coding>
            <system value="http://loinc.org"/>
            <code value="tbd-coordinate system"/>
            <display value="Genomic coordinate system"/>
          </coding>
        </code>
        <valueCodeableConcept>
          <coding>
            <system value="http://hl7.org/fhir/uv/genomics-reporting/CodeSystem/genetic-coordinate-system"/>
            <code value="1"/>
          </coding>
        </valueCodeableConcept>
      </component>
      <component>
        <code>
          <coding>
            <system value="http://loinc.org"/>
            <code value="81254-5"/>
            <display value="Genomic Allele start-end"/>
          </coding>
        </code>
        <valueRange>
          <low>
            <value value="18135690"/>
          </low>
        </valueRange>
      </component>
    </Observation>
  </contained>
  <contained>
    <Observation>
      <id value="dv-5c7fc15ba0c91"/>
      <meta>
        <profile value="http://hl7.org/fhir/uv/genomics-reporting/StructureDefinition/obs-described-variant"/>
      </meta>
      <status value="final"/>
      <category>
        <coding>
          <system value="http://terminology.hl7.org/CodeSystem/observation-category"/>
          <code value="laboratory"/>
        </coding>
      </category>
      <code>
        <coding>
          <system value="http://loinc.org"/>
          <code value="TBD-Described"/>
          <display value="Genetic variant assessment"/>
        </coding>
      </code>
      <subject>
        <reference value="Patient/NA19435"/>
      </subject>
      <issued value="2019-03-06T12:47:23+00:00"/>
      <valueCodeableConcept>
        <coding>
          <system value="http://loinc.org"/>
          <code value="LA9633-4"/>
          <display value="Present"/>
        </coding>
      </valueCodeableConcept>
      <component>
        <code>
          <coding>
            <system value="http://loinc.org"/>
            <code value="62374-4"/>
            <display value="Human reference sequence assembly version"/>
          </coding>
        </code>
        <valueCodeableConcept>
          <coding>
            <system value="http://loinc.org"/>
            <code value="LA14029-5"/>
            <display value="GRCh37"/>
          </coding>
        </valueCodeableConcept>
      </component>
      <component>
        <code>
          <coding>
            <system value="http://loinc.org"/>
            <code value="48013-7"/>
            <display value="Genomic reference sequence ID"/>
          </coding>
        </code>
        <valueCodeableConcept>
          <coding>
            <system value="http://www.ncbi.nlm.nih.gov/nuccore"/>
            <code value="NC_000006.11"/>
          </coding>
        </valueCodeableConcept>
      </component>
      <component>
        <code>
          <coding>
            <system value="http://loinc.org"/>
            <code value="53034-5"/>
            <display value="Allelic state"/>
          </coding>
        </code>
        <valueCodeableConcept>
          <coding>
            <system value="http://loinc.org"/>
            <code value="LA6705-3"/>
            <display value="homozygous"/>
          </coding>
        </valueCodeableConcept>
      </component>
      <component>
        <code>
          <coding>
            <system value="http://loinc.org"/>
            <code value="69547-8"/>
            <display value="Genomic Ref allele"/>
          </coding>
        </code>
        <valueString value="C"/>
      </component>
      <component>
        <code>
          <coding>
            <system value="http://loinc.org"/>
            <code value="69551-0"/>
            <display value="Genomic Alt allele"/>
          </coding>
        </code>
        <valueString value="G"/>
      </component>
      <component>
        <code>
          <coding>
            <system value="http://loinc.org"/>
            <code value="tbd-coordinate system"/>
            <display value="Genomic coordinate system"/>
          </coding>
        </code>
        <valueCodeableConcept>
          <coding>
            <system value="http://hl7.org/fhir/uv/genomics-reporting/CodeSystem/genetic-coordinate-system"/>
            <code value="1"/>
          </coding>
        </valueCodeableConcept>
      </component>
      <component>
        <code>
          <coding>
            <system value="http://loinc.org"/>
            <code value="81254-5"/>
            <display value="Genomic Allele start-end"/>
          </coding>
        </code>
        <valueRange>
          <low>
            <value value="18135816"/>
          </low>
        </valueRange>
      </component>
    </Observation>
  </contained>
  <contained>
    <Observation>
      <id value="dv-5c7fc15ba0d1b"/>
      <meta>
        <profile value="http://hl7.org/fhir/uv/genomics-reporting/StructureDefinition/obs-described-variant"/>
      </meta>
      <status value="final"/>
      <category>
        <coding>
          <system value="http://terminology.hl7.org/CodeSystem/observation-category"/>
          <code value="laboratory"/>
        </coding>
      </category>
      <code>
        <coding>
          <system value="http://loinc.org"/>
          <code value="TBD-Described"/>
          <display value="Genetic variant assessment"/>
        </coding>
      </code>
      <subject>
        <reference value="Patient/NA19435"/>
      </subject>
      <issued value="2019-03-06T12:47:23+00:00"/>
      <valueCodeableConcept>
        <coding>
          <system value="http://loinc.org"/>
          <code value="LA9633-4"/>
          <display value="Present"/>
        </coding>
      </valueCodeableConcept>
      <component>
        <code>
          <coding>
            <system value="http://loinc.org"/>
            <code value="62374-4"/>
            <display value="Human reference sequence assembly version"/>
          </coding>
        </code>
        <valueCodeableConcept>
          <coding>
            <system value="http://loinc.org"/>
            <code value="LA14029-5"/>
            <display value="GRCh37"/>
          </coding>
        </valueCodeableConcept>
      </component>
      <component>
        <code>
          <coding>
            <system value="http://loinc.org"/>
            <code value="48013-7"/>
            <display value="Genomic reference sequence ID"/>
          </coding>
        </code>
        <valueCodeableConcept>
          <coding>
            <system value="http://www.ncbi.nlm.nih.gov/nuccore"/>
            <code value="NC_000006.11"/>
          </coding>
        </valueCodeableConcept>
      </component>
      <component>
        <code>
          <coding>
            <system value="http://loinc.org"/>
            <code value="53034-5"/>
            <display value="Allelic state"/>
          </coding>
        </code>
        <valueCodeableConcept>
          <coding>
            <system value="http://loinc.org"/>
            <code value="LA6705-3"/>
            <display value="homozygous"/>
          </coding>
        </valueCodeableConcept>
      </component>
      <component>
        <code>
          <coding>
            <system value="http://loinc.org"/>
            <code value="69547-8"/>
            <display value="Genomic Ref allele"/>
          </coding>
        </code>
        <valueString value="T"/>
      </component>
      <component>
        <code>
          <coding>
            <system value="http://loinc.org"/>
            <code value="69551-0"/>
            <display value="Genomic Alt allele"/>
          </coding>
        </code>
        <valueString value="G"/>
      </component>
      <component>
        <code>
          <coding>
            <system value="http://loinc.org"/>
            <code value="tbd-coordinate system"/>
            <display value="Genomic coordinate system"/>
          </coding>
        </code>
        <valueCodeableConcept>
          <coding>
            <system value="http://hl7.org/fhir/uv/genomics-reporting/CodeSystem/genetic-coordinate-system"/>
            <code value="1"/>
          </coding>
        </valueCodeableConcept>
      </component>
      <component>
        <code>
          <coding>
            <system value="http://loinc.org"/>
            <code value="81254-5"/>
            <display value="Genomic Allele start-end"/>
          </coding>
        </code>
        <valueRange>
          <low>
            <value value="18135993"/>
          </low>
        </valueRange>
      </component>
    </Observation>
  </contained>
  <contained>
    <Observation>
      <id value="dv-5c7fc15ba0da5"/>
      <meta>
        <profile value="http://hl7.org/fhir/uv/genomics-reporting/StructureDefinition/obs-described-variant"/>
      </meta>
      <status value="final"/>
      <category>
        <coding>
          <system value="http://terminology.hl7.org/CodeSystem/observation-category"/>
          <code value="laboratory"/>
        </coding>
      </category>
      <code>
        <coding>
          <system value="http://loinc.org"/>
          <code value="TBD-Described"/>
          <display value="Genetic variant assessment"/>
        </coding>
      </code>
      <subject>
        <reference value="Patient/NA19435"/>
      </subject>
      <issued value="2019-03-06T12:47:23+00:00"/>
      <valueCodeableConcept>
        <coding>
          <system value="http://loinc.org"/>
          <code value="LA9633-4"/>
          <display value="Present"/>
        </coding>
      </valueCodeableConcept>
      <component>
        <code>
          <coding>
            <system value="http://loinc.org"/>
            <code value="62374-4"/>
            <display value="Human reference sequence assembly version"/>
          </coding>
        </code>
        <valueCodeableConcept>
          <coding>
            <system value="http://loinc.org"/>
            <code value="LA14029-5"/>
            <display value="GRCh37"/>
          </coding>
        </valueCodeableConcept>
      </component>
      <component>
        <code>
          <coding>
            <system value="http://loinc.org"/>
            <code value="48013-7"/>
            <display value="Genomic reference sequence ID"/>
          </coding>
        </code>
        <valueCodeableConcept>
          <coding>
            <system value="http://www.ncbi.nlm.nih.gov/nuccore"/>
            <code value="NC_000006.11"/>
          </coding>
        </valueCodeableConcept>
      </component>
      <component>
        <code>
          <coding>
            <system value="http://loinc.org"/>
            <code value="53034-5"/>
            <display value="Allelic state"/>
          </coding>
        </code>
        <valueCodeableConcept>
          <coding>
            <system value="http://loinc.org"/>
            <code value="LA6705-3"/>
            <display value="homozygous"/>
          </coding>
        </valueCodeableConcept>
      </component>
      <component>
        <code>
          <coding>
            <system value="http://loinc.org"/>
            <code value="69547-8"/>
            <display value="Genomic Ref allele"/>
          </coding>
        </code>
        <valueString value="T"/>
      </component>
      <component>
        <code>
          <coding>
            <system value="http://loinc.org"/>
            <code value="69551-0"/>
            <display value="Genomic Alt allele"/>
          </coding>
        </code>
        <valueString value="C"/>
      </component>
      <component>
        <code>
          <coding>
            <system value="http://loinc.org"/>
            <code value="tbd-coordinate system"/>
            <display value="Genomic coordinate system"/>
          </coding>
        </code>
        <valueCodeableConcept>
          <coding>
            <system value="http://hl7.org/fhir/uv/genomics-reporting/CodeSystem/genetic-coordinate-system"/>
            <code value="1"/>
          </coding>
        </valueCodeableConcept>
      </component>
      <component>
        <code>
          <coding>
            <system value="http://loinc.org"/>
            <code value="81254-5"/>
            <display value="Genomic Allele start-end"/>
          </coding>
        </code>
        <valueRange>
          <low>
            <value value="18137036"/>
          </low>
        </valueRange>
      </component>
    </Observation>
  </contained>
  <contained>
    <Observation>
      <id value="dv-5c7fc15ba0e2e"/>
      <meta>
        <profile value="http://hl7.org/fhir/uv/genomics-reporting/StructureDefinition/obs-described-variant"/>
      </meta>
      <status value="final"/>
      <category>
        <coding>
          <system value="http://terminology.hl7.org/CodeSystem/observation-category"/>
          <code value="laboratory"/>
        </coding>
      </category>
      <code>
        <coding>
          <system value="http://loinc.org"/>
          <code value="TBD-Described"/>
          <display value="Genetic variant assessment"/>
        </coding>
      </code>
      <subject>
        <reference value="Patient/NA19435"/>
      </subject>
      <issued value="2019-03-06T12:47:23+00:00"/>
      <valueCodeableConcept>
        <coding>
          <system value="http://loinc.org"/>
          <code value="LA9633-4"/>
          <display value="Present"/>
        </coding>
      </valueCodeableConcept>
      <component>
        <code>
          <coding>
            <system value="http://loinc.org"/>
            <code value="62374-4"/>
            <display value="Human reference sequence assembly version"/>
          </coding>
        </code>
        <valueCodeableConcept>
          <coding>
            <system value="http://loinc.org"/>
            <code value="LA14029-5"/>
            <display value="GRCh37"/>
          </coding>
        </valueCodeableConcept>
      </component>
      <component>
        <code>
          <coding>
            <system value="http://loinc.org"/>
            <code value="48013-7"/>
            <display value="Genomic reference sequence ID"/>
          </coding>
        </code>
        <valueCodeableConcept>
          <coding>
            <system value="http://www.ncbi.nlm.nih.gov/nuccore"/>
            <code value="NC_000006.11"/>
          </coding>
        </valueCodeableConcept>
      </component>
      <component>
        <code>
          <coding>
            <system value="http://loinc.org"/>
            <code value="53034-5"/>
            <display value="Allelic state"/>
          </coding>
        </code>
        <valueCodeableConcept>
          <coding>
            <system value="http://loinc.org"/>
            <code value="LA6706-1"/>
            <display value="heterozygous"/>
          </coding>
        </valueCodeableConcept>
      </component>
      <component>
        <code>
          <coding>
            <system value="http://loinc.org"/>
            <code value="69547-8"/>
            <display value="Genomic Ref allele"/>
          </coding>
        </code>
        <valueString value="T"/>
      </component>
      <component>
        <code>
          <coding>
            <system value="http://loinc.org"/>
            <code value="69551-0"/>
            <display value="Genomic Alt allele"/>
          </coding>
        </code>
        <valueString value="C"/>
      </component>
      <component>
        <code>
          <coding>
            <system value="http://loinc.org"/>
            <code value="tbd-coordinate system"/>
            <display value="Genomic coordinate system"/>
          </coding>
        </code>
        <valueCodeableConcept>
          <coding>
            <system value="http://hl7.org/fhir/uv/genomics-reporting/CodeSystem/genetic-coordinate-system"/>
            <code value="1"/>
          </coding>
        </valueCodeableConcept>
      </component>
      <component>
        <code>
          <coding>
            <system value="http://loinc.org"/>
            <code value="81254-5"/>
            <display value="Genomic Allele start-end"/>
          </coding>
        </code>
        <valueRange>
          <low>
            <value value="18137085"/>
          </low>
        </valueRange>
      </component>
    </Observation>
  </contained>
  <contained>
    <Observation>
      <id value="dv-5c7fc15ba0eb8"/>
      <meta>
        <profile value="http://hl7.org/fhir/uv/genomics-reporting/StructureDefinition/obs-described-variant"/>
      </meta>
      <status value="final"/>
      <category>
        <coding>
          <system value="http://terminology.hl7.org/CodeSystem/observation-category"/>
          <code value="laboratory"/>
        </coding>
      </category>
      <code>
        <coding>
          <system value="http://loinc.org"/>
          <code value="TBD-Described"/>
          <display value="Genetic variant assessment"/>
        </coding>
      </code>
      <subject>
        <reference value="Patient/NA19435"/>
      </subject>
      <issued value="2019-03-06T12:47:23+00:00"/>
      <valueCodeableConcept>
        <coding>
          <system value="http://loinc.org"/>
          <code value="LA9633-4"/>
          <display value="Present"/>
        </coding>
      </valueCodeableConcept>
      <component>
        <code>
          <coding>
            <system value="http://loinc.org"/>
            <code value="62374-4"/>
            <display value="Human reference sequence assembly version"/>
          </coding>
        </code>
        <valueCodeableConcept>
          <coding>
            <system value="http://loinc.org"/>
            <code value="LA14029-5"/>
            <display value="GRCh37"/>
          </coding>
        </valueCodeableConcept>
      </component>
      <component>
        <code>
          <coding>
            <system value="http://loinc.org"/>
            <code value="48013-7"/>
            <display value="Genomic reference sequence ID"/>
          </coding>
        </code>
        <valueCodeableConcept>
          <coding>
            <system value="http://www.ncbi.nlm.nih.gov/nuccore"/>
            <code value="NC_000006.11"/>
          </coding>
        </valueCodeableConcept>
      </component>
      <component>
        <code>
          <coding>
            <system value="http://loinc.org"/>
            <code value="53034-5"/>
            <display value="Allelic state"/>
          </coding>
        </code>
        <valueCodeableConcept>
          <coding>
            <system value="http://loinc.org"/>
            <code value="LA6705-3"/>
            <display value="homozygous"/>
          </coding>
        </valueCodeableConcept>
      </component>
      <component>
        <code>
          <coding>
            <system value="http://loinc.org"/>
            <code value="69547-8"/>
            <display value="Genomic Ref allele"/>
          </coding>
        </code>
        <valueString value="G"/>
      </component>
      <component>
        <code>
          <coding>
            <system value="http://loinc.org"/>
            <code value="69551-0"/>
            <display value="Genomic Alt allele"/>
          </coding>
        </code>
        <valueString value="GT"/>
      </component>
      <component>
        <code>
          <coding>
            <system value="http://loinc.org"/>
            <code value="tbd-coordinate system"/>
            <display value="Genomic coordinate system"/>
          </coding>
        </code>
        <valueCodeableConcept>
          <coding>
            <system value="http://hl7.org/fhir/uv/genomics-reporting/CodeSystem/genetic-coordinate-system"/>
            <code value="1"/>
          </coding>
        </valueCodeableConcept>
      </component>
      <component>
        <code>
          <coding>
            <system value="http://loinc.org"/>
            <code value="81254-5"/>
            <display value="Genomic Allele start-end"/>
          </coding>
        </code>
        <valueRange>
          <low>
            <value value="18137357"/>
          </low>
        </valueRange>
      </component>
    </Observation>
  </contained>
  <contained>
    <Observation>
      <id value="dv-5c7fc15ba0f42"/>
      <meta>
        <profile value="http://hl7.org/fhir/uv/genomics-reporting/StructureDefinition/obs-described-variant"/>
      </meta>
      <status value="final"/>
      <category>
        <coding>
          <system value="http://terminology.hl7.org/CodeSystem/observation-category"/>
          <code value="laboratory"/>
        </coding>
      </category>
      <code>
        <coding>
          <system value="http://loinc.org"/>
          <code value="TBD-Described"/>
          <display value="Genetic variant assessment"/>
        </coding>
      </code>
      <subject>
        <reference value="Patient/NA19435"/>
      </subject>
      <issued value="2019-03-06T12:47:23+00:00"/>
      <valueCodeableConcept>
        <coding>
          <system value="http://loinc.org"/>
          <code value="LA9633-4"/>
          <display value="Present"/>
        </coding>
      </valueCodeableConcept>
      <component>
        <code>
          <coding>
            <system value="http://loinc.org"/>
            <code value="62374-4"/>
            <display value="Human reference sequence assembly version"/>
          </coding>
        </code>
        <valueCodeableConcept>
          <coding>
            <system value="http://loinc.org"/>
            <code value="LA14029-5"/>
            <display value="GRCh37"/>
          </coding>
        </valueCodeableConcept>
      </component>
      <component>
        <code>
          <coding>
            <system value="http://loinc.org"/>
            <code value="48013-7"/>
            <display value="Genomic reference sequence ID"/>
          </coding>
        </code>
        <valueCodeableConcept>
          <coding>
            <system value="http://www.ncbi.nlm.nih.gov/nuccore"/>
            <code value="NC_000006.11"/>
          </coding>
        </valueCodeableConcept>
      </component>
      <component>
        <code>
          <coding>
            <system value="http://loinc.org"/>
            <code value="53034-5"/>
            <display value="Allelic state"/>
          </coding>
        </code>
        <valueCodeableConcept>
          <coding>
            <system value="http://loinc.org"/>
            <code value="LA6706-1"/>
            <display value="heterozygous"/>
          </coding>
        </valueCodeableConcept>
      </component>
      <component>
        <code>
          <coding>
            <system value="http://loinc.org"/>
            <code value="69547-8"/>
            <display value="Genomic Ref allele"/>
          </coding>
        </code>
        <valueString value="A"/>
      </component>
      <component>
        <code>
          <coding>
            <system value="http://loinc.org"/>
            <code value="69551-0"/>
            <display value="Genomic Alt allele"/>
          </coding>
        </code>
        <valueString value="G"/>
      </component>
      <component>
        <code>
          <coding>
            <system value="http://loinc.org"/>
            <code value="tbd-coordinate system"/>
            <display value="Genomic coordinate system"/>
          </coding>
        </code>
        <valueCodeableConcept>
          <coding>
            <system value="http://hl7.org/fhir/uv/genomics-reporting/CodeSystem/genetic-coordinate-system"/>
            <code value="1"/>
          </coding>
        </valueCodeableConcept>
      </component>
      <component>
        <code>
          <coding>
            <system value="http://loinc.org"/>
            <code value="81254-5"/>
            <display value="Genomic Allele start-end"/>
          </coding>
        </code>
        <valueRange>
          <low>
            <value value="18137714"/>
          </low>
        </valueRange>
      </component>
    </Observation>
  </contained>
  <contained>
    <Observation>
      <id value="dv-5c7fc15ba0fcd"/>
      <meta>
        <profile value="http://hl7.org/fhir/uv/genomics-reporting/StructureDefinition/obs-described-variant"/>
      </meta>
      <status value="final"/>
      <category>
        <coding>
          <system value="http://terminology.hl7.org/CodeSystem/observation-category"/>
          <code value="laboratory"/>
        </coding>
      </category>
      <code>
        <coding>
          <system value="http://loinc.org"/>
          <code value="TBD-Described"/>
          <display value="Genetic variant assessment"/>
        </coding>
      </code>
      <subject>
        <reference value="Patient/NA19435"/>
      </subject>
      <issued value="2019-03-06T12:47:23+00:00"/>
      <valueCodeableConcept>
        <coding>
          <system value="http://loinc.org"/>
          <code value="LA9633-4"/>
          <display value="Present"/>
        </coding>
      </valueCodeableConcept>
      <component>
        <code>
          <coding>
            <system value="http://loinc.org"/>
            <code value="62374-4"/>
            <display value="Human reference sequence assembly version"/>
          </coding>
        </code>
        <valueCodeableConcept>
          <coding>
            <system value="http://loinc.org"/>
            <code value="LA14029-5"/>
            <display value="GRCh37"/>
          </coding>
        </valueCodeableConcept>
      </component>
      <component>
        <code>
          <coding>
            <system value="http://loinc.org"/>
            <code value="48013-7"/>
            <display value="Genomic reference sequence ID"/>
          </coding>
        </code>
        <valueCodeableConcept>
          <coding>
            <system value="http://www.ncbi.nlm.nih.gov/nuccore"/>
            <code value="NC_000006.11"/>
          </coding>
        </valueCodeableConcept>
      </component>
      <component>
        <code>
          <coding>
            <system value="http://loinc.org"/>
            <code value="53034-5"/>
            <display value="Allelic state"/>
          </coding>
        </code>
        <valueCodeableConcept>
          <coding>
            <system value="http://loinc.org"/>
            <code value="LA6706-1"/>
            <display value="heterozygous"/>
          </coding>
        </valueCodeableConcept>
      </component>
      <component>
        <code>
          <coding>
            <system value="http://loinc.org"/>
            <code value="69547-8"/>
            <display value="Genomic Ref allele"/>
          </coding>
        </code>
        <valueString value="C"/>
      </component>
      <component>
        <code>
          <coding>
            <system value="http://loinc.org"/>
            <code value="69551-0"/>
            <display value="Genomic Alt allele"/>
          </coding>
        </code>
        <valueString value="T"/>
      </component>
      <component>
        <code>
          <coding>
            <system value="http://loinc.org"/>
            <code value="tbd-coordinate system"/>
            <display value="Genomic coordinate system"/>
          </coding>
        </code>
        <valueCodeableConcept>
          <coding>
            <system value="http://hl7.org/fhir/uv/genomics-reporting/CodeSystem/genetic-coordinate-system"/>
            <code value="1"/>
          </coding>
        </valueCodeableConcept>
      </component>
      <component>
        <code>
          <coding>
            <system value="http://loinc.org"/>
            <code value="81254-5"/>
            <display value="Genomic Allele start-end"/>
          </coding>
        </code>
        <valueRange>
          <low>
            <value value="18137873"/>
          </low>
        </valueRange>
      </component>
    </Observation>
  </contained>
  <contained>
    <Observation>
      <id value="dv-5c7fc15ba1057"/>
      <meta>
        <profile value="http://hl7.org/fhir/uv/genomics-reporting/StructureDefinition/obs-described-variant"/>
      </meta>
      <status value="final"/>
      <category>
        <coding>
          <system value="http://terminology.hl7.org/CodeSystem/observation-category"/>
          <code value="laboratory"/>
        </coding>
      </category>
      <code>
        <coding>
          <system value="http://loinc.org"/>
          <code value="TBD-Described"/>
          <display value="Genetic variant assessment"/>
        </coding>
      </code>
      <subject>
        <reference value="Patient/NA19435"/>
      </subject>
      <issued value="2019-03-06T12:47:23+00:00"/>
      <valueCodeableConcept>
        <coding>
          <system value="http://loinc.org"/>
          <code value="LA9633-4"/>
          <display value="Present"/>
        </coding>
      </valueCodeableConcept>
      <component>
        <code>
          <coding>
            <system value="http://loinc.org"/>
            <code value="62374-4"/>
            <display value="Human reference sequence assembly version"/>
          </coding>
        </code>
        <valueCodeableConcept>
          <coding>
            <system value="http://loinc.org"/>
            <code value="LA14029-5"/>
            <display value="GRCh37"/>
          </coding>
        </valueCodeableConcept>
      </component>
      <component>
        <code>
          <coding>
            <system value="http://loinc.org"/>
            <code value="48013-7"/>
            <display value="Genomic reference sequence ID"/>
          </coding>
        </code>
        <valueCodeableConcept>
          <coding>
            <system value="http://www.ncbi.nlm.nih.gov/nuccore"/>
            <code value="NC_000006.11"/>
          </coding>
        </valueCodeableConcept>
      </component>
      <component>
        <code>
          <coding>
            <system value="http://loinc.org"/>
            <code value="53034-5"/>
            <display value="Allelic state"/>
          </coding>
        </code>
        <valueCodeableConcept>
          <coding>
            <system value="http://loinc.org"/>
            <code value="LA6705-3"/>
            <display value="homozygous"/>
          </coding>
        </valueCodeableConcept>
      </component>
      <component>
        <code>
          <coding>
            <system value="http://loinc.org"/>
            <code value="69547-8"/>
            <display value="Genomic Ref allele"/>
          </coding>
        </code>
        <valueString value="GAC"/>
      </component>
      <component>
        <code>
          <coding>
            <system value="http://loinc.org"/>
            <code value="69551-0"/>
            <display value="Genomic Alt allele"/>
          </coding>
        </code>
        <valueString value="G"/>
      </component>
      <component>
        <code>
          <coding>
            <system value="http://loinc.org"/>
            <code value="tbd-coordinate system"/>
            <display value="Genomic coordinate system"/>
          </coding>
        </code>
        <valueCodeableConcept>
          <coding>
            <system value="http://hl7.org/fhir/uv/genomics-reporting/CodeSystem/genetic-coordinate-system"/>
            <code value="1"/>
          </coding>
        </valueCodeableConcept>
      </component>
      <component>
        <code>
          <coding>
            <system value="http://loinc.org"/>
            <code value="81254-5"/>
            <display value="Genomic Allele start-end"/>
          </coding>
        </code>
        <valueRange>
          <low>
            <value value="18137926"/>
          </low>
        </valueRange>
      </component>
    </Observation>
  </contained>
  <contained>
    <Observation>
      <id value="dv-5c7fc15ba10e1"/>
      <meta>
        <profile value="http://hl7.org/fhir/uv/genomics-reporting/StructureDefinition/obs-described-variant"/>
      </meta>
      <status value="final"/>
      <category>
        <coding>
          <system value="http://terminology.hl7.org/CodeSystem/observation-category"/>
          <code value="laboratory"/>
        </coding>
      </category>
      <code>
        <coding>
          <system value="http://loinc.org"/>
          <code value="TBD-Described"/>
          <display value="Genetic variant assessment"/>
        </coding>
      </code>
      <subject>
        <reference value="Patient/NA19435"/>
      </subject>
      <issued value="2019-03-06T12:47:23+00:00"/>
      <valueCodeableConcept>
        <coding>
          <system value="http://loinc.org"/>
          <code value="LA9633-4"/>
          <display value="Present"/>
        </coding>
      </valueCodeableConcept>
      <component>
        <code>
          <coding>
            <system value="http://loinc.org"/>
            <code value="62374-4"/>
            <display value="Human reference sequence assembly version"/>
          </coding>
        </code>
        <valueCodeableConcept>
          <coding>
            <system value="http://loinc.org"/>
            <code value="LA14029-5"/>
            <display value="GRCh37"/>
          </coding>
        </valueCodeableConcept>
      </component>
      <component>
        <code>
          <coding>
            <system value="http://loinc.org"/>
            <code value="48013-7"/>
            <display value="Genomic reference sequence ID"/>
          </coding>
        </code>
        <valueCodeableConcept>
          <coding>
            <system value="http://www.ncbi.nlm.nih.gov/nuccore"/>
            <code value="NC_000006.11"/>
          </coding>
        </valueCodeableConcept>
      </component>
      <component>
        <code>
          <coding>
            <system value="http://loinc.org"/>
            <code value="53034-5"/>
            <display value="Allelic state"/>
          </coding>
        </code>
        <valueCodeableConcept>
          <coding>
            <system value="http://loinc.org"/>
            <code value="LA6705-3"/>
            <display value="homozygous"/>
          </coding>
        </valueCodeableConcept>
      </component>
      <component>
        <code>
          <coding>
            <system value="http://loinc.org"/>
            <code value="69547-8"/>
            <display value="Genomic Ref allele"/>
          </coding>
        </code>
        <valueString value="T"/>
      </component>
      <component>
        <code>
          <coding>
            <system value="http://loinc.org"/>
            <code value="69551-0"/>
            <display value="Genomic Alt allele"/>
          </coding>
        </code>
        <valueString value="C"/>
      </component>
      <component>
        <code>
          <coding>
            <system value="http://loinc.org"/>
            <code value="tbd-coordinate system"/>
            <display value="Genomic coordinate system"/>
          </coding>
        </code>
        <valueCodeableConcept>
          <coding>
            <system value="http://hl7.org/fhir/uv/genomics-reporting/CodeSystem/genetic-coordinate-system"/>
            <code value="1"/>
          </coding>
        </valueCodeableConcept>
      </component>
      <component>
        <code>
          <coding>
            <system value="http://loinc.org"/>
            <code value="81254-5"/>
            <display value="Genomic Allele start-end"/>
          </coding>
        </code>
        <valueRange>
          <low>
            <value value="18138238"/>
          </low>
        </valueRange>
      </component>
    </Observation>
  </contained>
  <contained>
    <Observation>
      <id value="dv-5c7fc15ba116b"/>
      <meta>
        <profile value="http://hl7.org/fhir/uv/genomics-reporting/StructureDefinition/obs-described-variant"/>
      </meta>
      <status value="final"/>
      <category>
        <coding>
          <system value="http://terminology.hl7.org/CodeSystem/observation-category"/>
          <code value="laboratory"/>
        </coding>
      </category>
      <code>
        <coding>
          <system value="http://loinc.org"/>
          <code value="TBD-Described"/>
          <display value="Genetic variant assessment"/>
        </coding>
      </code>
      <subject>
        <reference value="Patient/NA19435"/>
      </subject>
      <issued value="2019-03-06T12:47:23+00:00"/>
      <valueCodeableConcept>
        <coding>
          <system value="http://loinc.org"/>
          <code value="LA9633-4"/>
          <display value="Present"/>
        </coding>
      </valueCodeableConcept>
      <component>
        <code>
          <coding>
            <system value="http://loinc.org"/>
            <code value="62374-4"/>
            <display value="Human reference sequence assembly version"/>
          </coding>
        </code>
        <valueCodeableConcept>
          <coding>
            <system value="http://loinc.org"/>
            <code value="LA14029-5"/>
            <display value="GRCh37"/>
          </coding>
        </valueCodeableConcept>
      </component>
      <component>
        <code>
          <coding>
            <system value="http://loinc.org"/>
            <code value="48013-7"/>
            <display value="Genomic reference sequence ID"/>
          </coding>
        </code>
        <valueCodeableConcept>
          <coding>
            <system value="http://www.ncbi.nlm.nih.gov/nuccore"/>
            <code value="NC_000006.11"/>
          </coding>
        </valueCodeableConcept>
      </component>
      <component>
        <code>
          <coding>
            <system value="http://loinc.org"/>
            <code value="53034-5"/>
            <display value="Allelic state"/>
          </coding>
        </code>
        <valueCodeableConcept>
          <coding>
            <system value="http://loinc.org"/>
            <code value="LA6706-1"/>
            <display value="heterozygous"/>
          </coding>
        </valueCodeableConcept>
      </component>
      <component>
        <code>
          <coding>
            <system value="http://loinc.org"/>
            <code value="69547-8"/>
            <display value="Genomic Ref allele"/>
          </coding>
        </code>
        <valueString value="C"/>
      </component>
      <component>
        <code>
          <coding>
            <system value="http://loinc.org"/>
            <code value="69551-0"/>
            <display value="Genomic Alt allele"/>
          </coding>
        </code>
        <valueString value="T"/>
      </component>
      <component>
        <code>
          <coding>
            <system value="http://loinc.org"/>
            <code value="tbd-coordinate system"/>
            <display value="Genomic coordinate system"/>
          </coding>
        </code>
        <valueCodeableConcept>
          <coding>
            <system value="http://hl7.org/fhir/uv/genomics-reporting/CodeSystem/genetic-coordinate-system"/>
            <code value="1"/>
          </coding>
        </valueCodeableConcept>
      </component>
      <component>
        <code>
          <coding>
            <system value="http://loinc.org"/>
            <code value="81254-5"/>
            <display value="Genomic Allele start-end"/>
          </coding>
        </code>
        <valueRange>
          <low>
            <value value="18138306"/>
          </low>
        </valueRange>
      </component>
    </Observation>
  </contained>
  <contained>
    <Observation>
      <id value="dv-5c7fc15ba11f4"/>
      <meta>
        <profile value="http://hl7.org/fhir/uv/genomics-reporting/StructureDefinition/obs-described-variant"/>
      </meta>
      <status value="final"/>
      <category>
        <coding>
          <system value="http://terminology.hl7.org/CodeSystem/observation-category"/>
          <code value="laboratory"/>
        </coding>
      </category>
      <code>
        <coding>
          <system value="http://loinc.org"/>
          <code value="TBD-Described"/>
          <display value="Genetic variant assessment"/>
        </coding>
      </code>
      <subject>
        <reference value="Patient/NA19435"/>
      </subject>
      <issued value="2019-03-06T12:47:23+00:00"/>
      <valueCodeableConcept>
        <coding>
          <system value="http://loinc.org"/>
          <code value="LA9633-4"/>
          <display value="Present"/>
        </coding>
      </valueCodeableConcept>
      <component>
        <code>
          <coding>
            <system value="http://loinc.org"/>
            <code value="62374-4"/>
            <display value="Human reference sequence assembly version"/>
          </coding>
        </code>
        <valueCodeableConcept>
          <coding>
            <system value="http://loinc.org"/>
            <code value="LA14029-5"/>
            <display value="GRCh37"/>
          </coding>
        </valueCodeableConcept>
      </component>
      <component>
        <code>
          <coding>
            <system value="http://loinc.org"/>
            <code value="48013-7"/>
            <display value="Genomic reference sequence ID"/>
          </coding>
        </code>
        <valueCodeableConcept>
          <coding>
            <system value="http://www.ncbi.nlm.nih.gov/nuccore"/>
            <code value="NC_000006.11"/>
          </coding>
        </valueCodeableConcept>
      </component>
      <component>
        <code>
          <coding>
            <system value="http://loinc.org"/>
            <code value="53034-5"/>
            <display value="Allelic state"/>
          </coding>
        </code>
        <valueCodeableConcept>
          <coding>
            <system value="http://loinc.org"/>
            <code value="LA6705-3"/>
            <display value="homozygous"/>
          </coding>
        </valueCodeableConcept>
      </component>
      <component>
        <code>
          <coding>
            <system value="http://loinc.org"/>
            <code value="69547-8"/>
            <display value="Genomic Ref allele"/>
          </coding>
        </code>
        <valueString value="GT"/>
      </component>
      <component>
        <code>
          <coding>
            <system value="http://loinc.org"/>
            <code value="69551-0"/>
            <display value="Genomic Alt allele"/>
          </coding>
        </code>
        <valueString value="G"/>
      </component>
      <component>
        <code>
          <coding>
            <system value="http://loinc.org"/>
            <code value="tbd-coordinate system"/>
            <display value="Genomic coordinate system"/>
          </coding>
        </code>
        <valueCodeableConcept>
          <coding>
            <system value="http://hl7.org/fhir/uv/genomics-reporting/CodeSystem/genetic-coordinate-system"/>
            <code value="1"/>
          </coding>
        </valueCodeableConcept>
      </component>
      <component>
        <code>
          <coding>
            <system value="http://loinc.org"/>
            <code value="81254-5"/>
            <display value="Genomic Allele start-end"/>
          </coding>
        </code>
        <valueRange>
          <low>
            <value value="18138495"/>
          </low>
        </valueRange>
      </component>
    </Observation>
  </contained>
  <contained>
    <Observation>
      <id value="dv-5c7fc15ba1292"/>
      <meta>
        <profile value="http://hl7.org/fhir/uv/genomics-reporting/StructureDefinition/obs-described-variant"/>
      </meta>
      <status value="final"/>
      <category>
        <coding>
          <system value="http://terminology.hl7.org/CodeSystem/observation-category"/>
          <code value="laboratory"/>
        </coding>
      </category>
      <code>
        <coding>
          <system value="http://loinc.org"/>
          <code value="TBD-Described"/>
          <display value="Genetic variant assessment"/>
        </coding>
      </code>
      <subject>
        <reference value="Patient/NA19435"/>
      </subject>
      <issued value="2019-03-06T12:47:23+00:00"/>
      <valueCodeableConcept>
        <coding>
          <system value="http://loinc.org"/>
          <code value="LA9633-4"/>
          <display value="Present"/>
        </coding>
      </valueCodeableConcept>
      <component>
        <code>
          <coding>
            <system value="http://loinc.org"/>
            <code value="62374-4"/>
            <display value="Human reference sequence assembly version"/>
          </coding>
        </code>
        <valueCodeableConcept>
          <coding>
            <system value="http://loinc.org"/>
            <code value="LA14029-5"/>
            <display value="GRCh37"/>
          </coding>
        </valueCodeableConcept>
      </component>
      <component>
        <code>
          <coding>
            <system value="http://loinc.org"/>
            <code value="48013-7"/>
            <display value="Genomic reference sequence ID"/>
          </coding>
        </code>
        <valueCodeableConcept>
          <coding>
            <system value="http://www.ncbi.nlm.nih.gov/nuccore"/>
            <code value="NC_000006.11"/>
          </coding>
        </valueCodeableConcept>
      </component>
      <component>
        <code>
          <coding>
            <system value="http://loinc.org"/>
            <code value="53034-5"/>
            <display value="Allelic state"/>
          </coding>
        </code>
        <valueCodeableConcept>
          <coding>
            <system value="http://loinc.org"/>
            <code value="LA6705-3"/>
            <display value="homozygous"/>
          </coding>
        </valueCodeableConcept>
      </component>
      <component>
        <code>
          <coding>
            <system value="http://loinc.org"/>
            <code value="69547-8"/>
            <display value="Genomic Ref allele"/>
          </coding>
        </code>
        <valueString value="A"/>
      </component>
      <component>
        <code>
          <coding>
            <system value="http://loinc.org"/>
            <code value="69551-0"/>
            <display value="Genomic Alt allele"/>
          </coding>
        </code>
        <valueString value="G"/>
      </component>
      <component>
        <code>
          <coding>
            <system value="http://loinc.org"/>
            <code value="tbd-coordinate system"/>
            <display value="Genomic coordinate system"/>
          </coding>
        </code>
        <valueCodeableConcept>
          <coding>
            <system value="http://hl7.org/fhir/uv/genomics-reporting/CodeSystem/genetic-coordinate-system"/>
            <code value="1"/>
          </coding>
        </valueCodeableConcept>
      </component>
      <component>
        <code>
          <coding>
            <system value="http://loinc.org"/>
            <code value="81254-5"/>
            <display value="Genomic Allele start-end"/>
          </coding>
        </code>
        <valueRange>
          <low>
            <value value="18138552"/>
          </low>
        </valueRange>
      </component>
    </Observation>
  </contained>
  <contained>
    <Observation>
      <id value="dv-5c7fc15ba1324"/>
      <meta>
        <profile value="http://hl7.org/fhir/uv/genomics-reporting/StructureDefinition/obs-described-variant"/>
      </meta>
      <status value="final"/>
      <category>
        <coding>
          <system value="http://terminology.hl7.org/CodeSystem/observation-category"/>
          <code value="laboratory"/>
        </coding>
      </category>
      <code>
        <coding>
          <system value="http://loinc.org"/>
          <code value="TBD-Described"/>
          <display value="Genetic variant assessment"/>
        </coding>
      </code>
      <subject>
        <reference value="Patient/NA19435"/>
      </subject>
      <issued value="2019-03-06T12:47:23+00:00"/>
      <valueCodeableConcept>
        <coding>
          <system value="http://loinc.org"/>
          <code value="LA9633-4"/>
          <display value="Present"/>
        </coding>
      </valueCodeableConcept>
      <component>
        <code>
          <coding>
            <system value="http://loinc.org"/>
            <code value="62374-4"/>
            <display value="Human reference sequence assembly version"/>
          </coding>
        </code>
        <valueCodeableConcept>
          <coding>
            <system value="http://loinc.org"/>
            <code value="LA14029-5"/>
            <display value="GRCh37"/>
          </coding>
        </valueCodeableConcept>
      </component>
      <component>
        <code>
          <coding>
            <system value="http://loinc.org"/>
            <code value="48013-7"/>
            <display value="Genomic reference sequence ID"/>
          </coding>
        </code>
        <valueCodeableConcept>
          <coding>
            <system value="http://www.ncbi.nlm.nih.gov/nuccore"/>
            <code value="NC_000006.11"/>
          </coding>
        </valueCodeableConcept>
      </component>
      <component>
        <code>
          <coding>
            <system value="http://loinc.org"/>
            <code value="53034-5"/>
            <display value="Allelic state"/>
          </coding>
        </code>
        <valueCodeableConcept>
          <coding>
            <system value="http://loinc.org"/>
            <code value="LA6705-3"/>
            <display value="homozygous"/>
          </coding>
        </valueCodeableConcept>
      </component>
      <component>
        <code>
          <coding>
            <system value="http://loinc.org"/>
            <code value="69547-8"/>
            <display value="Genomic Ref allele"/>
          </coding>
        </code>
        <valueString value="A"/>
      </component>
      <component>
        <code>
          <coding>
            <system value="http://loinc.org"/>
            <code value="69551-0"/>
            <display value="Genomic Alt allele"/>
          </coding>
        </code>
        <valueString value="C"/>
      </component>
      <component>
        <code>
          <coding>
            <system value="http://loinc.org"/>
            <code value="tbd-coordinate system"/>
            <display value="Genomic coordinate system"/>
          </coding>
        </code>
        <valueCodeableConcept>
          <coding>
            <system value="http://hl7.org/fhir/uv/genomics-reporting/CodeSystem/genetic-coordinate-system"/>
            <code value="1"/>
          </coding>
        </valueCodeableConcept>
      </component>
      <component>
        <code>
          <coding>
            <system value="http://loinc.org"/>
            <code value="81254-5"/>
            <display value="Genomic Allele start-end"/>
          </coding>
        </code>
        <valueRange>
          <low>
            <value value="18138827"/>
          </low>
        </valueRange>
      </component>
    </Observation>
  </contained>
  <contained>
    <Observation>
      <id value="dv-5c7fc15ba13a8"/>
      <meta>
        <profile value="http://hl7.org/fhir/uv/genomics-reporting/StructureDefinition/obs-described-variant"/>
      </meta>
      <status value="final"/>
      <category>
        <coding>
          <system value="http://terminology.hl7.org/CodeSystem/observation-category"/>
          <code value="laboratory"/>
        </coding>
      </category>
      <code>
        <coding>
          <system value="http://loinc.org"/>
          <code value="TBD-Described"/>
          <display value="Genetic variant assessment"/>
        </coding>
      </code>
      <subject>
        <reference value="Patient/NA19435"/>
      </subject>
      <issued value="2019-03-06T12:47:23+00:00"/>
      <valueCodeableConcept>
        <coding>
          <system value="http://loinc.org"/>
          <code value="LA9633-4"/>
          <display value="Present"/>
        </coding>
      </valueCodeableConcept>
      <component>
        <code>
          <coding>
            <system value="http://loinc.org"/>
            <code value="62374-4"/>
            <display value="Human reference sequence assembly version"/>
          </coding>
        </code>
        <valueCodeableConcept>
          <coding>
            <system value="http://loinc.org"/>
            <code value="LA14029-5"/>
            <display value="GRCh37"/>
          </coding>
        </valueCodeableConcept>
      </component>
      <component>
        <code>
          <coding>
            <system value="http://loinc.org"/>
            <code value="48013-7"/>
            <display value="Genomic reference sequence ID"/>
          </coding>
        </code>
        <valueCodeableConcept>
          <coding>
            <system value="http://www.ncbi.nlm.nih.gov/nuccore"/>
            <code value="NC_000006.11"/>
          </coding>
        </valueCodeableConcept>
      </component>
      <component>
        <code>
          <coding>
            <system value="http://loinc.org"/>
            <code value="53034-5"/>
            <display value="Allelic state"/>
          </coding>
        </code>
        <valueCodeableConcept>
          <coding>
            <system value="http://loinc.org"/>
            <code value="LA6705-3"/>
            <display value="homozygous"/>
          </coding>
        </valueCodeableConcept>
      </component>
      <component>
        <code>
          <coding>
            <system value="http://loinc.org"/>
            <code value="69547-8"/>
            <display value="Genomic Ref allele"/>
          </coding>
        </code>
        <valueString value="G"/>
      </component>
      <component>
        <code>
          <coding>
            <system value="http://loinc.org"/>
            <code value="69551-0"/>
            <display value="Genomic Alt allele"/>
          </coding>
        </code>
        <valueString value="A"/>
      </component>
      <component>
        <code>
          <coding>
            <system value="http://loinc.org"/>
            <code value="tbd-coordinate system"/>
            <display value="Genomic coordinate system"/>
          </coding>
        </code>
        <valueCodeableConcept>
          <coding>
            <system value="http://hl7.org/fhir/uv/genomics-reporting/CodeSystem/genetic-coordinate-system"/>
            <code value="1"/>
          </coding>
        </valueCodeableConcept>
      </component>
      <component>
        <code>
          <coding>
            <system value="http://loinc.org"/>
            <code value="81254-5"/>
            <display value="Genomic Allele start-end"/>
          </coding>
        </code>
        <valueRange>
          <low>
            <value value="18139214"/>
          </low>
        </valueRange>
      </component>
    </Observation>
  </contained>
  <contained>
    <Observation>
      <id value="dv-5c7fc15ba142b"/>
      <meta>
        <profile value="http://hl7.org/fhir/uv/genomics-reporting/StructureDefinition/obs-described-variant"/>
      </meta>
      <status value="final"/>
      <category>
        <coding>
          <system value="http://terminology.hl7.org/CodeSystem/observation-category"/>
          <code value="laboratory"/>
        </coding>
      </category>
      <code>
        <coding>
          <system value="http://loinc.org"/>
          <code value="TBD-Described"/>
          <display value="Genetic variant assessment"/>
        </coding>
      </code>
      <subject>
        <reference value="Patient/NA19435"/>
      </subject>
      <issued value="2019-03-06T12:47:23+00:00"/>
      <valueCodeableConcept>
        <coding>
          <system value="http://loinc.org"/>
          <code value="LA9633-4"/>
          <display value="Present"/>
        </coding>
      </valueCodeableConcept>
      <component>
        <code>
          <coding>
            <system value="http://loinc.org"/>
            <code value="62374-4"/>
            <display value="Human reference sequence assembly version"/>
          </coding>
        </code>
        <valueCodeableConcept>
          <coding>
            <system value="http://loinc.org"/>
            <code value="LA14029-5"/>
            <display value="GRCh37"/>
          </coding>
        </valueCodeableConcept>
      </component>
      <component>
        <code>
          <coding>
            <system value="http://loinc.org"/>
            <code value="48013-7"/>
            <display value="Genomic reference sequence ID"/>
          </coding>
        </code>
        <valueCodeableConcept>
          <coding>
            <system value="http://www.ncbi.nlm.nih.gov/nuccore"/>
            <code value="NC_000006.11"/>
          </coding>
        </valueCodeableConcept>
      </component>
      <component>
        <code>
          <coding>
            <system value="http://loinc.org"/>
            <code value="53034-5"/>
            <display value="Allelic state"/>
          </coding>
        </code>
        <valueCodeableConcept>
          <coding>
            <system value="http://loinc.org"/>
            <code value="LA6706-1"/>
            <display value="heterozygous"/>
          </coding>
        </valueCodeableConcept>
      </component>
      <component>
        <code>
          <coding>
            <system value="http://loinc.org"/>
            <code value="69547-8"/>
            <display value="Genomic Ref allele"/>
          </coding>
        </code>
        <valueString value="A"/>
      </component>
      <component>
        <code>
          <coding>
            <system value="http://loinc.org"/>
            <code value="69551-0"/>
            <display value="Genomic Alt allele"/>
          </coding>
        </code>
        <valueString value="T"/>
      </component>
      <component>
        <code>
          <coding>
            <system value="http://loinc.org"/>
            <code value="tbd-coordinate system"/>
            <display value="Genomic coordinate system"/>
          </coding>
        </code>
        <valueCodeableConcept>
          <coding>
            <system value="http://hl7.org/fhir/uv/genomics-reporting/CodeSystem/genetic-coordinate-system"/>
            <code value="1"/>
          </coding>
        </valueCodeableConcept>
      </component>
      <component>
        <code>
          <coding>
            <system value="http://loinc.org"/>
            <code value="81254-5"/>
            <display value="Genomic Allele start-end"/>
          </coding>
        </code>
        <valueRange>
          <low>
            <value value="18139802"/>
          </low>
        </valueRange>
      </component>
    </Observation>
  </contained>
  <contained>
    <Observation>
      <id value="dv-5c7fc15ba14af"/>
      <meta>
        <profile value="http://hl7.org/fhir/uv/genomics-reporting/StructureDefinition/obs-described-variant"/>
      </meta>
      <status value="final"/>
      <category>
        <coding>
          <system value="http://terminology.hl7.org/CodeSystem/observation-category"/>
          <code value="laboratory"/>
        </coding>
      </category>
      <code>
        <coding>
          <system value="http://loinc.org"/>
          <code value="TBD-Described"/>
          <display value="Genetic variant assessment"/>
        </coding>
      </code>
      <subject>
        <reference value="Patient/NA19435"/>
      </subject>
      <issued value="2019-03-06T12:47:23+00:00"/>
      <valueCodeableConcept>
        <coding>
          <system value="http://loinc.org"/>
          <code value="LA9633-4"/>
          <display value="Present"/>
        </coding>
      </valueCodeableConcept>
      <component>
        <code>
          <coding>
            <system value="http://loinc.org"/>
            <code value="62374-4"/>
            <display value="Human reference sequence assembly version"/>
          </coding>
        </code>
        <valueCodeableConcept>
          <coding>
            <system value="http://loinc.org"/>
            <code value="LA14029-5"/>
            <display value="GRCh37"/>
          </coding>
        </valueCodeableConcept>
      </component>
      <component>
        <code>
          <coding>
            <system value="http://loinc.org"/>
            <code value="48013-7"/>
            <display value="Genomic reference sequence ID"/>
          </coding>
        </code>
        <valueCodeableConcept>
          <coding>
            <system value="http://www.ncbi.nlm.nih.gov/nuccore"/>
            <code value="NC_000006.11"/>
          </coding>
        </valueCodeableConcept>
      </component>
      <component>
        <code>
          <coding>
            <system value="http://loinc.org"/>
            <code value="53034-5"/>
            <display value="Allelic state"/>
          </coding>
        </code>
        <valueCodeableConcept>
          <coding>
            <system value="http://loinc.org"/>
            <code value="LA6706-1"/>
            <display value="heterozygous"/>
          </coding>
        </valueCodeableConcept>
      </component>
      <component>
        <code>
          <coding>
            <system value="http://loinc.org"/>
            <code value="69547-8"/>
            <display value="Genomic Ref allele"/>
          </coding>
        </code>
        <valueString value="T"/>
      </component>
      <component>
        <code>
          <coding>
            <system value="http://loinc.org"/>
            <code value="69551-0"/>
            <display value="Genomic Alt allele"/>
          </coding>
        </code>
        <valueString value="C"/>
      </component>
      <component>
        <code>
          <coding>
            <system value="http://loinc.org"/>
            <code value="tbd-coordinate system"/>
            <display value="Genomic coordinate system"/>
          </coding>
        </code>
        <valueCodeableConcept>
          <coding>
            <system value="http://hl7.org/fhir/uv/genomics-reporting/CodeSystem/genetic-coordinate-system"/>
            <code value="1"/>
          </coding>
        </valueCodeableConcept>
      </component>
      <component>
        <code>
          <coding>
            <system value="http://loinc.org"/>
            <code value="81254-5"/>
            <display value="Genomic Allele start-end"/>
          </coding>
        </code>
        <valueRange>
          <low>
            <value value="18140175"/>
          </low>
        </valueRange>
      </component>
    </Observation>
  </contained>
  <contained>
    <Observation>
      <id value="dv-5c7fc15ba1532"/>
      <meta>
        <profile value="http://hl7.org/fhir/uv/genomics-reporting/StructureDefinition/obs-described-variant"/>
      </meta>
      <status value="final"/>
      <category>
        <coding>
          <system value="http://terminology.hl7.org/CodeSystem/observation-category"/>
          <code value="laboratory"/>
        </coding>
      </category>
      <code>
        <coding>
          <system value="http://loinc.org"/>
          <code value="TBD-Described"/>
          <display value="Genetic variant assessment"/>
        </coding>
      </code>
      <subject>
        <reference value="Patient/NA19435"/>
      </subject>
      <issued value="2019-03-06T12:47:23+00:00"/>
      <valueCodeableConcept>
        <coding>
          <system value="http://loinc.org"/>
          <code value="LA9633-4"/>
          <display value="Present"/>
        </coding>
      </valueCodeableConcept>
      <component>
        <code>
          <coding>
            <system value="http://loinc.org"/>
            <code value="62374-4"/>
            <display value="Human reference sequence assembly version"/>
          </coding>
        </code>
        <valueCodeableConcept>
          <coding>
            <system value="http://loinc.org"/>
            <code value="LA14029-5"/>
            <display value="GRCh37"/>
          </coding>
        </valueCodeableConcept>
      </component>
      <component>
        <code>
          <coding>
            <system value="http://loinc.org"/>
            <code value="48013-7"/>
            <display value="Genomic reference sequence ID"/>
          </coding>
        </code>
        <valueCodeableConcept>
          <coding>
            <system value="http://www.ncbi.nlm.nih.gov/nuccore"/>
            <code value="NC_000006.11"/>
          </coding>
        </valueCodeableConcept>
      </component>
      <component>
        <code>
          <coding>
            <system value="http://loinc.org"/>
            <code value="53034-5"/>
            <display value="Allelic state"/>
          </coding>
        </code>
        <valueCodeableConcept>
          <coding>
            <system value="http://loinc.org"/>
            <code value="LA6706-1"/>
            <display value="heterozygous"/>
          </coding>
        </valueCodeableConcept>
      </component>
      <component>
        <code>
          <coding>
            <system value="http://loinc.org"/>
            <code value="69547-8"/>
            <display value="Genomic Ref allele"/>
          </coding>
        </code>
        <valueString value="T"/>
      </component>
      <component>
        <code>
          <coding>
            <system value="http://loinc.org"/>
            <code value="69551-0"/>
            <display value="Genomic Alt allele"/>
          </coding>
        </code>
        <valueString value="C"/>
      </component>
      <component>
        <code>
          <coding>
            <system value="http://loinc.org"/>
            <code value="tbd-coordinate system"/>
            <display value="Genomic coordinate system"/>
          </coding>
        </code>
        <valueCodeableConcept>
          <coding>
            <system value="http://hl7.org/fhir/uv/genomics-reporting/CodeSystem/genetic-coordinate-system"/>
            <code value="1"/>
          </coding>
        </valueCodeableConcept>
      </component>
      <component>
        <code>
          <coding>
            <system value="http://loinc.org"/>
            <code value="81254-5"/>
            <display value="Genomic Allele start-end"/>
          </coding>
        </code>
        <valueRange>
          <low>
            <value value="18140250"/>
          </low>
        </valueRange>
      </component>
    </Observation>
  </contained>
  <contained>
    <Observation>
      <id value="dv-5c7fc15ba15b5"/>
      <meta>
        <profile value="http://hl7.org/fhir/uv/genomics-reporting/StructureDefinition/obs-described-variant"/>
      </meta>
      <status value="final"/>
      <category>
        <coding>
          <system value="http://terminology.hl7.org/CodeSystem/observation-category"/>
          <code value="laboratory"/>
        </coding>
      </category>
      <code>
        <coding>
          <system value="http://loinc.org"/>
          <code value="TBD-Described"/>
          <display value="Genetic variant assessment"/>
        </coding>
      </code>
      <subject>
        <reference value="Patient/NA19435"/>
      </subject>
      <issued value="2019-03-06T12:47:23+00:00"/>
      <valueCodeableConcept>
        <coding>
          <system value="http://loinc.org"/>
          <code value="LA9633-4"/>
          <display value="Present"/>
        </coding>
      </valueCodeableConcept>
      <component>
        <code>
          <coding>
            <system value="http://loinc.org"/>
            <code value="62374-4"/>
            <display value="Human reference sequence assembly version"/>
          </coding>
        </code>
        <valueCodeableConcept>
          <coding>
            <system value="http://loinc.org"/>
            <code value="LA14029-5"/>
            <display value="GRCh37"/>
          </coding>
        </valueCodeableConcept>
      </component>
      <component>
        <code>
          <coding>
            <system value="http://loinc.org"/>
            <code value="48013-7"/>
            <display value="Genomic reference sequence ID"/>
          </coding>
        </code>
        <valueCodeableConcept>
          <coding>
            <system value="http://www.ncbi.nlm.nih.gov/nuccore"/>
            <code value="NC_000006.11"/>
          </coding>
        </valueCodeableConcept>
      </component>
      <component>
        <code>
          <coding>
            <system value="http://loinc.org"/>
            <code value="53034-5"/>
            <display value="Allelic state"/>
          </coding>
        </code>
        <valueCodeableConcept>
          <coding>
            <system value="http://loinc.org"/>
            <code value="LA6706-1"/>
            <display value="heterozygous"/>
          </coding>
        </valueCodeableConcept>
      </component>
      <component>
        <code>
          <coding>
            <system value="http://loinc.org"/>
            <code value="69547-8"/>
            <display value="Genomic Ref allele"/>
          </coding>
        </code>
        <valueString value="G"/>
      </component>
      <component>
        <code>
          <coding>
            <system value="http://loinc.org"/>
            <code value="69551-0"/>
            <display value="Genomic Alt allele"/>
          </coding>
        </code>
        <valueString value="A"/>
      </component>
      <component>
        <code>
          <coding>
            <system value="http://loinc.org"/>
            <code value="tbd-coordinate system"/>
            <display value="Genomic coordinate system"/>
          </coding>
        </code>
        <valueCodeableConcept>
          <coding>
            <system value="http://hl7.org/fhir/uv/genomics-reporting/CodeSystem/genetic-coordinate-system"/>
            <code value="1"/>
          </coding>
        </valueCodeableConcept>
      </component>
      <component>
        <code>
          <coding>
            <system value="http://loinc.org"/>
            <code value="81254-5"/>
            <display value="Genomic Allele start-end"/>
          </coding>
        </code>
        <valueRange>
          <low>
            <value value="18140732"/>
          </low>
        </valueRange>
      </component>
    </Observation>
  </contained>
  <contained>
    <Observation>
      <id value="dv-5c7fc15ba1639"/>
      <meta>
        <profile value="http://hl7.org/fhir/uv/genomics-reporting/StructureDefinition/obs-described-variant"/>
      </meta>
      <status value="final"/>
      <category>
        <coding>
          <system value="http://terminology.hl7.org/CodeSystem/observation-category"/>
          <code value="laboratory"/>
        </coding>
      </category>
      <code>
        <coding>
          <system value="http://loinc.org"/>
          <code value="TBD-Described"/>
          <display value="Genetic variant assessment"/>
        </coding>
      </code>
      <subject>
        <reference value="Patient/NA19435"/>
      </subject>
      <issued value="2019-03-06T12:47:23+00:00"/>
      <valueCodeableConcept>
        <coding>
          <system value="http://loinc.org"/>
          <code value="LA9633-4"/>
          <display value="Present"/>
        </coding>
      </valueCodeableConcept>
      <component>
        <code>
          <coding>
            <system value="http://loinc.org"/>
            <code value="62374-4"/>
            <display value="Human reference sequence assembly version"/>
          </coding>
        </code>
        <valueCodeableConcept>
          <coding>
            <system value="http://loinc.org"/>
            <code value="LA14029-5"/>
            <display value="GRCh37"/>
          </coding>
        </valueCodeableConcept>
      </component>
      <component>
        <code>
          <coding>
            <system value="http://loinc.org"/>
            <code value="48013-7"/>
            <display value="Genomic reference sequence ID"/>
          </coding>
        </code>
        <valueCodeableConcept>
          <coding>
            <system value="http://www.ncbi.nlm.nih.gov/nuccore"/>
            <code value="NC_000006.11"/>
          </coding>
        </valueCodeableConcept>
      </component>
      <component>
        <code>
          <coding>
            <system value="http://loinc.org"/>
            <code value="53034-5"/>
            <display value="Allelic state"/>
          </coding>
        </code>
        <valueCodeableConcept>
          <coding>
            <system value="http://loinc.org"/>
            <code value="LA6706-1"/>
            <display value="heterozygous"/>
          </coding>
        </valueCodeableConcept>
      </component>
      <component>
        <code>
          <coding>
            <system value="http://loinc.org"/>
            <code value="69547-8"/>
            <display value="Genomic Ref allele"/>
          </coding>
        </code>
        <valueString value="G"/>
      </component>
      <component>
        <code>
          <coding>
            <system value="http://loinc.org"/>
            <code value="69551-0"/>
            <display value="Genomic Alt allele"/>
          </coding>
        </code>
        <valueString value="GAC"/>
      </component>
      <component>
        <code>
          <coding>
            <system value="http://loinc.org"/>
            <code value="tbd-coordinate system"/>
            <display value="Genomic coordinate system"/>
          </coding>
        </code>
        <valueCodeableConcept>
          <coding>
            <system value="http://hl7.org/fhir/uv/genomics-reporting/CodeSystem/genetic-coordinate-system"/>
            <code value="1"/>
          </coding>
        </valueCodeableConcept>
      </component>
      <component>
        <code>
          <coding>
            <system value="http://loinc.org"/>
            <code value="81254-5"/>
            <display value="Genomic Allele start-end"/>
          </coding>
        </code>
        <valueRange>
          <low>
            <value value="18140894"/>
          </low>
        </valueRange>
      </component>
    </Observation>
  </contained>
  <contained>
    <Observation>
      <id value="dv-5c7fc15ba16bd"/>
      <meta>
        <profile value="http://hl7.org/fhir/uv/genomics-reporting/StructureDefinition/obs-described-variant"/>
      </meta>
      <status value="final"/>
      <category>
        <coding>
          <system value="http://terminology.hl7.org/CodeSystem/observation-category"/>
          <code value="laboratory"/>
        </coding>
      </category>
      <code>
        <coding>
          <system value="http://loinc.org"/>
          <code value="TBD-Described"/>
          <display value="Genetic variant assessment"/>
        </coding>
      </code>
      <subject>
        <reference value="Patient/NA19435"/>
      </subject>
      <issued value="2019-03-06T12:47:23+00:00"/>
      <valueCodeableConcept>
        <coding>
          <system value="http://loinc.org"/>
          <code value="LA9633-4"/>
          <display value="Present"/>
        </coding>
      </valueCodeableConcept>
      <component>
        <code>
          <coding>
            <system value="http://loinc.org"/>
            <code value="62374-4"/>
            <display value="Human reference sequence assembly version"/>
          </coding>
        </code>
        <valueCodeableConcept>
          <coding>
            <system value="http://loinc.org"/>
            <code value="LA14029-5"/>
            <display value="GRCh37"/>
          </coding>
        </valueCodeableConcept>
      </component>
      <component>
        <code>
          <coding>
            <system value="http://loinc.org"/>
            <code value="48013-7"/>
            <display value="Genomic reference sequence ID"/>
          </coding>
        </code>
        <valueCodeableConcept>
          <coding>
            <system value="http://www.ncbi.nlm.nih.gov/nuccore"/>
            <code value="NC_000006.11"/>
          </coding>
        </valueCodeableConcept>
      </component>
      <component>
        <code>
          <coding>
            <system value="http://loinc.org"/>
            <code value="53034-5"/>
            <display value="Allelic state"/>
          </coding>
        </code>
        <valueCodeableConcept>
          <coding>
            <system value="http://loinc.org"/>
            <code value="LA6706-1"/>
            <display value="heterozygous"/>
          </coding>
        </valueCodeableConcept>
      </component>
      <component>
        <code>
          <coding>
            <system value="http://loinc.org"/>
            <code value="69547-8"/>
            <display value="Genomic Ref allele"/>
          </coding>
        </code>
        <valueString value="T"/>
      </component>
      <component>
        <code>
          <coding>
            <system value="http://loinc.org"/>
            <code value="69551-0"/>
            <display value="Genomic Alt allele"/>
          </coding>
        </code>
        <valueString value="G"/>
      </component>
      <component>
        <code>
          <coding>
            <system value="http://loinc.org"/>
            <code value="tbd-coordinate system"/>
            <display value="Genomic coordinate system"/>
          </coding>
        </code>
        <valueCodeableConcept>
          <coding>
            <system value="http://hl7.org/fhir/uv/genomics-reporting/CodeSystem/genetic-coordinate-system"/>
            <code value="1"/>
          </coding>
        </valueCodeableConcept>
      </component>
      <component>
        <code>
          <coding>
            <system value="http://loinc.org"/>
            <code value="81254-5"/>
            <display value="Genomic Allele start-end"/>
          </coding>
        </code>
        <valueRange>
          <low>
            <value value="18141308"/>
          </low>
        </valueRange>
      </component>
    </Observation>
  </contained>
  <contained>
    <Observation>
      <id value="dv-5c7fc15ba1741"/>
      <meta>
        <profile value="http://hl7.org/fhir/uv/genomics-reporting/StructureDefinition/obs-described-variant"/>
      </meta>
      <status value="final"/>
      <category>
        <coding>
          <system value="http://terminology.hl7.org/CodeSystem/observation-category"/>
          <code value="laboratory"/>
        </coding>
      </category>
      <code>
        <coding>
          <system value="http://loinc.org"/>
          <code value="TBD-Described"/>
          <display value="Genetic variant assessment"/>
        </coding>
      </code>
      <subject>
        <reference value="Patient/NA19435"/>
      </subject>
      <issued value="2019-03-06T12:47:23+00:00"/>
      <valueCodeableConcept>
        <coding>
          <system value="http://loinc.org"/>
          <code value="LA9633-4"/>
          <display value="Present"/>
        </coding>
      </valueCodeableConcept>
      <component>
        <code>
          <coding>
            <system value="http://loinc.org"/>
            <code value="62374-4"/>
            <display value="Human reference sequence assembly version"/>
          </coding>
        </code>
        <valueCodeableConcept>
          <coding>
            <system value="http://loinc.org"/>
            <code value="LA14029-5"/>
            <display value="GRCh37"/>
          </coding>
        </valueCodeableConcept>
      </component>
      <component>
        <code>
          <coding>
            <system value="http://loinc.org"/>
            <code value="48013-7"/>
            <display value="Genomic reference sequence ID"/>
          </coding>
        </code>
        <valueCodeableConcept>
          <coding>
            <system value="http://www.ncbi.nlm.nih.gov/nuccore"/>
            <code value="NC_000006.11"/>
          </coding>
        </valueCodeableConcept>
      </component>
      <component>
        <code>
          <coding>
            <system value="http://loinc.org"/>
            <code value="53034-5"/>
            <display value="Allelic state"/>
          </coding>
        </code>
        <valueCodeableConcept>
          <coding>
            <system value="http://loinc.org"/>
            <code value="LA6706-1"/>
            <display value="heterozygous"/>
          </coding>
        </valueCodeableConcept>
      </component>
      <component>
        <code>
          <coding>
            <system value="http://loinc.org"/>
            <code value="69547-8"/>
            <display value="Genomic Ref allele"/>
          </coding>
        </code>
        <valueString value="T"/>
      </component>
      <component>
        <code>
          <coding>
            <system value="http://loinc.org"/>
            <code value="69551-0"/>
            <display value="Genomic Alt allele"/>
          </coding>
        </code>
        <valueString value="C"/>
      </component>
      <component>
        <code>
          <coding>
            <system value="http://loinc.org"/>
            <code value="tbd-coordinate system"/>
            <display value="Genomic coordinate system"/>
          </coding>
        </code>
        <valueCodeableConcept>
          <coding>
            <system value="http://hl7.org/fhir/uv/genomics-reporting/CodeSystem/genetic-coordinate-system"/>
            <code value="1"/>
          </coding>
        </valueCodeableConcept>
      </component>
      <component>
        <code>
          <coding>
            <system value="http://loinc.org"/>
            <code value="81254-5"/>
            <display value="Genomic Allele start-end"/>
          </coding>
        </code>
        <valueRange>
          <low>
            <value value="18141330"/>
          </low>
        </valueRange>
      </component>
    </Observation>
  </contained>
  <contained>
    <Observation>
      <id value="dv-5c7fc15ba17c4"/>
      <meta>
        <profile value="http://hl7.org/fhir/uv/genomics-reporting/StructureDefinition/obs-described-variant"/>
      </meta>
      <status value="final"/>
      <category>
        <coding>
          <system value="http://terminology.hl7.org/CodeSystem/observation-category"/>
          <code value="laboratory"/>
        </coding>
      </category>
      <code>
        <coding>
          <system value="http://loinc.org"/>
          <code value="TBD-Described"/>
          <display value="Genetic variant assessment"/>
        </coding>
      </code>
      <subject>
        <reference value="Patient/NA19435"/>
      </subject>
      <issued value="2019-03-06T12:47:23+00:00"/>
      <valueCodeableConcept>
        <coding>
          <system value="http://loinc.org"/>
          <code value="LA9633-4"/>
          <display value="Present"/>
        </coding>
      </valueCodeableConcept>
      <component>
        <code>
          <coding>
            <system value="http://loinc.org"/>
            <code value="62374-4"/>
            <display value="Human reference sequence assembly version"/>
          </coding>
        </code>
        <valueCodeableConcept>
          <coding>
            <system value="http://loinc.org"/>
            <code value="LA14029-5"/>
            <display value="GRCh37"/>
          </coding>
        </valueCodeableConcept>
      </component>
      <component>
        <code>
          <coding>
            <system value="http://loinc.org"/>
            <code value="48013-7"/>
            <display value="Genomic reference sequence ID"/>
          </coding>
        </code>
        <valueCodeableConcept>
          <coding>
            <system value="http://www.ncbi.nlm.nih.gov/nuccore"/>
            <code value="NC_000006.11"/>
          </coding>
        </valueCodeableConcept>
      </component>
      <component>
        <code>
          <coding>
            <system value="http://loinc.org"/>
            <code value="53034-5"/>
            <display value="Allelic state"/>
          </coding>
        </code>
        <valueCodeableConcept>
          <coding>
            <system value="http://loinc.org"/>
            <code value="LA6706-1"/>
            <display value="heterozygous"/>
          </coding>
        </valueCodeableConcept>
      </component>
      <component>
        <code>
          <coding>
            <system value="http://loinc.org"/>
            <code value="69547-8"/>
            <display value="Genomic Ref allele"/>
          </coding>
        </code>
        <valueString value="T"/>
      </component>
      <component>
        <code>
          <coding>
            <system value="http://loinc.org"/>
            <code value="69551-0"/>
            <display value="Genomic Alt allele"/>
          </coding>
        </code>
        <valueString value="C"/>
      </component>
      <component>
        <code>
          <coding>
            <system value="http://loinc.org"/>
            <code value="tbd-coordinate system"/>
            <display value="Genomic coordinate system"/>
          </coding>
        </code>
        <valueCodeableConcept>
          <coding>
            <system value="http://hl7.org/fhir/uv/genomics-reporting/CodeSystem/genetic-coordinate-system"/>
            <code value="1"/>
          </coding>
        </valueCodeableConcept>
      </component>
      <component>
        <code>
          <coding>
            <system value="http://loinc.org"/>
            <code value="81254-5"/>
            <display value="Genomic Allele start-end"/>
          </coding>
        </code>
        <valueRange>
          <low>
            <value value="18141639"/>
          </low>
        </valueRange>
      </component>
    </Observation>
  </contained>
  <contained>
    <Observation>
      <id value="dv-5c7fc15ba1848"/>
      <meta>
        <profile value="http://hl7.org/fhir/uv/genomics-reporting/StructureDefinition/obs-described-variant"/>
      </meta>
      <status value="final"/>
      <category>
        <coding>
          <system value="http://terminology.hl7.org/CodeSystem/observation-category"/>
          <code value="laboratory"/>
        </coding>
      </category>
      <code>
        <coding>
          <system value="http://loinc.org"/>
          <code value="TBD-Described"/>
          <display value="Genetic variant assessment"/>
        </coding>
      </code>
      <subject>
        <reference value="Patient/NA19435"/>
      </subject>
      <issued value="2019-03-06T12:47:23+00:00"/>
      <valueCodeableConcept>
        <coding>
          <system value="http://loinc.org"/>
          <code value="LA9633-4"/>
          <display value="Present"/>
        </coding>
      </valueCodeableConcept>
      <component>
        <code>
          <coding>
            <system value="http://loinc.org"/>
            <code value="62374-4"/>
            <display value="Human reference sequence assembly version"/>
          </coding>
        </code>
        <valueCodeableConcept>
          <coding>
            <system value="http://loinc.org"/>
            <code value="LA14029-5"/>
            <display value="GRCh37"/>
          </coding>
        </valueCodeableConcept>
      </component>
      <component>
        <code>
          <coding>
            <system value="http://loinc.org"/>
            <code value="48013-7"/>
            <display value="Genomic reference sequence ID"/>
          </coding>
        </code>
        <valueCodeableConcept>
          <coding>
            <system value="http://www.ncbi.nlm.nih.gov/nuccore"/>
            <code value="NC_000006.11"/>
          </coding>
        </valueCodeableConcept>
      </component>
      <component>
        <code>
          <coding>
            <system value="http://loinc.org"/>
            <code value="53034-5"/>
            <display value="Allelic state"/>
          </coding>
        </code>
        <valueCodeableConcept>
          <coding>
            <system value="http://loinc.org"/>
            <code value="LA6706-1"/>
            <display value="heterozygous"/>
          </coding>
        </valueCodeableConcept>
      </component>
      <component>
        <code>
          <coding>
            <system value="http://loinc.org"/>
            <code value="69547-8"/>
            <display value="Genomic Ref allele"/>
          </coding>
        </code>
        <valueString value="C"/>
      </component>
      <component>
        <code>
          <coding>
            <system value="http://loinc.org"/>
            <code value="69551-0"/>
            <display value="Genomic Alt allele"/>
          </coding>
        </code>
        <valueString value="T"/>
      </component>
      <component>
        <code>
          <coding>
            <system value="http://loinc.org"/>
            <code value="tbd-coordinate system"/>
            <display value="Genomic coordinate system"/>
          </coding>
        </code>
        <valueCodeableConcept>
          <coding>
            <system value="http://hl7.org/fhir/uv/genomics-reporting/CodeSystem/genetic-coordinate-system"/>
            <code value="1"/>
          </coding>
        </valueCodeableConcept>
      </component>
      <component>
        <code>
          <coding>
            <system value="http://loinc.org"/>
            <code value="81254-5"/>
            <display value="Genomic Allele start-end"/>
          </coding>
        </code>
        <valueRange>
          <low>
            <value value="18142205"/>
          </low>
        </valueRange>
      </component>
    </Observation>
  </contained>
  <contained>
    <Observation>
      <id value="dv-5c7fc15ba18cb"/>
      <meta>
        <profile value="http://hl7.org/fhir/uv/genomics-reporting/StructureDefinition/obs-described-variant"/>
      </meta>
      <status value="final"/>
      <category>
        <coding>
          <system value="http://terminology.hl7.org/CodeSystem/observation-category"/>
          <code value="laboratory"/>
        </coding>
      </category>
      <code>
        <coding>
          <system value="http://loinc.org"/>
          <code value="TBD-Described"/>
          <display value="Genetic variant assessment"/>
        </coding>
      </code>
      <subject>
        <reference value="Patient/NA19435"/>
      </subject>
      <issued value="2019-03-06T12:47:23+00:00"/>
      <valueCodeableConcept>
        <coding>
          <system value="http://loinc.org"/>
          <code value="LA9633-4"/>
          <display value="Present"/>
        </coding>
      </valueCodeableConcept>
      <component>
        <code>
          <coding>
            <system value="http://loinc.org"/>
            <code value="62374-4"/>
            <display value="Human reference sequence assembly version"/>
          </coding>
        </code>
        <valueCodeableConcept>
          <coding>
            <system value="http://loinc.org"/>
            <code value="LA14029-5"/>
            <display value="GRCh37"/>
          </coding>
        </valueCodeableConcept>
      </component>
      <component>
        <code>
          <coding>
            <system value="http://loinc.org"/>
            <code value="48013-7"/>
            <display value="Genomic reference sequence ID"/>
          </coding>
        </code>
        <valueCodeableConcept>
          <coding>
            <system value="http://www.ncbi.nlm.nih.gov/nuccore"/>
            <code value="NC_000006.11"/>
          </coding>
        </valueCodeableConcept>
      </component>
      <component>
        <code>
          <coding>
            <system value="http://loinc.org"/>
            <code value="53034-5"/>
            <display value="Allelic state"/>
          </coding>
        </code>
        <valueCodeableConcept>
          <coding>
            <system value="http://loinc.org"/>
            <code value="LA6706-1"/>
            <display value="heterozygous"/>
          </coding>
        </valueCodeableConcept>
      </component>
      <component>
        <code>
          <coding>
            <system value="http://loinc.org"/>
            <code value="69547-8"/>
            <display value="Genomic Ref allele"/>
          </coding>
        </code>
        <valueString value="A"/>
      </component>
      <component>
        <code>
          <coding>
            <system value="http://loinc.org"/>
            <code value="69551-0"/>
            <display value="Genomic Alt allele"/>
          </coding>
        </code>
        <valueString value="C"/>
      </component>
      <component>
        <code>
          <coding>
            <system value="http://loinc.org"/>
            <code value="tbd-coordinate system"/>
            <display value="Genomic coordinate system"/>
          </coding>
        </code>
        <valueCodeableConcept>
          <coding>
            <system value="http://hl7.org/fhir/uv/genomics-reporting/CodeSystem/genetic-coordinate-system"/>
            <code value="1"/>
          </coding>
        </valueCodeableConcept>
      </component>
      <component>
        <code>
          <coding>
            <system value="http://loinc.org"/>
            <code value="81254-5"/>
            <display value="Genomic Allele start-end"/>
          </coding>
        </code>
        <valueRange>
          <low>
            <value value="18142422"/>
          </low>
        </valueRange>
      </component>
    </Observation>
  </contained>
  <contained>
    <Observation>
      <id value="dv-5c7fc15ba1950"/>
      <meta>
        <profile value="http://hl7.org/fhir/uv/genomics-reporting/StructureDefinition/obs-described-variant"/>
      </meta>
      <status value="final"/>
      <category>
        <coding>
          <system value="http://terminology.hl7.org/CodeSystem/observation-category"/>
          <code value="laboratory"/>
        </coding>
      </category>
      <code>
        <coding>
          <system value="http://loinc.org"/>
          <code value="TBD-Described"/>
          <display value="Genetic variant assessment"/>
        </coding>
      </code>
      <subject>
        <reference value="Patient/NA19435"/>
      </subject>
      <issued value="2019-03-06T12:47:23+00:00"/>
      <valueCodeableConcept>
        <coding>
          <system value="http://loinc.org"/>
          <code value="LA9633-4"/>
          <display value="Present"/>
        </coding>
      </valueCodeableConcept>
      <component>
        <code>
          <coding>
            <system value="http://loinc.org"/>
            <code value="62374-4"/>
            <display value="Human reference sequence assembly version"/>
          </coding>
        </code>
        <valueCodeableConcept>
          <coding>
            <system value="http://loinc.org"/>
            <code value="LA14029-5"/>
            <display value="GRCh37"/>
          </coding>
        </valueCodeableConcept>
      </component>
      <component>
        <code>
          <coding>
            <system value="http://loinc.org"/>
            <code value="48013-7"/>
            <display value="Genomic reference sequence ID"/>
          </coding>
        </code>
        <valueCodeableConcept>
          <coding>
            <system value="http://www.ncbi.nlm.nih.gov/nuccore"/>
            <code value="NC_000006.11"/>
          </coding>
        </valueCodeableConcept>
      </component>
      <component>
        <code>
          <coding>
            <system value="http://loinc.org"/>
            <code value="53034-5"/>
            <display value="Allelic state"/>
          </coding>
        </code>
        <valueCodeableConcept>
          <coding>
            <system value="http://loinc.org"/>
            <code value="LA6706-1"/>
            <display value="heterozygous"/>
          </coding>
        </valueCodeableConcept>
      </component>
      <component>
        <code>
          <coding>
            <system value="http://loinc.org"/>
            <code value="69547-8"/>
            <display value="Genomic Ref allele"/>
          </coding>
        </code>
        <valueString value="G"/>
      </component>
      <component>
        <code>
          <coding>
            <system value="http://loinc.org"/>
            <code value="69551-0"/>
            <display value="Genomic Alt allele"/>
          </coding>
        </code>
        <valueString value="A"/>
      </component>
      <component>
        <code>
          <coding>
            <system value="http://loinc.org"/>
            <code value="tbd-coordinate system"/>
            <display value="Genomic coordinate system"/>
          </coding>
        </code>
        <valueCodeableConcept>
          <coding>
            <system value="http://hl7.org/fhir/uv/genomics-reporting/CodeSystem/genetic-coordinate-system"/>
            <code value="1"/>
          </coding>
        </valueCodeableConcept>
      </component>
      <component>
        <code>
          <coding>
            <system value="http://loinc.org"/>
            <code value="81254-5"/>
            <display value="Genomic Allele start-end"/>
          </coding>
        </code>
        <valueRange>
          <low>
            <value value="18142982"/>
          </low>
        </valueRange>
      </component>
    </Observation>
  </contained>
  <contained>
    <Observation>
      <id value="dv-5c7fc15ba19d3"/>
      <meta>
        <profile value="http://hl7.org/fhir/uv/genomics-reporting/StructureDefinition/obs-described-variant"/>
      </meta>
      <status value="final"/>
      <category>
        <coding>
          <system value="http://terminology.hl7.org/CodeSystem/observation-category"/>
          <code value="laboratory"/>
        </coding>
      </category>
      <code>
        <coding>
          <system value="http://loinc.org"/>
          <code value="TBD-Described"/>
          <display value="Genetic variant assessment"/>
        </coding>
      </code>
      <subject>
        <reference value="Patient/NA19435"/>
      </subject>
      <issued value="2019-03-06T12:47:23+00:00"/>
      <valueCodeableConcept>
        <coding>
          <system value="http://loinc.org"/>
          <code value="LA9633-4"/>
          <display value="Present"/>
        </coding>
      </valueCodeableConcept>
      <component>
        <code>
          <coding>
            <system value="http://loinc.org"/>
            <code value="62374-4"/>
            <display value="Human reference sequence assembly version"/>
          </coding>
        </code>
        <valueCodeableConcept>
          <coding>
            <system value="http://loinc.org"/>
            <code value="LA14029-5"/>
            <display value="GRCh37"/>
          </coding>
        </valueCodeableConcept>
      </component>
      <component>
        <code>
          <coding>
            <system value="http://loinc.org"/>
            <code value="48013-7"/>
            <display value="Genomic reference sequence ID"/>
          </coding>
        </code>
        <valueCodeableConcept>
          <coding>
            <system value="http://www.ncbi.nlm.nih.gov/nuccore"/>
            <code value="NC_000006.11"/>
          </coding>
        </valueCodeableConcept>
      </component>
      <component>
        <code>
          <coding>
            <system value="http://loinc.org"/>
            <code value="53034-5"/>
            <display value="Allelic state"/>
          </coding>
        </code>
        <valueCodeableConcept>
          <coding>
            <system value="http://loinc.org"/>
            <code value="LA6706-1"/>
            <display value="heterozygous"/>
          </coding>
        </valueCodeableConcept>
      </component>
      <component>
        <code>
          <coding>
            <system value="http://loinc.org"/>
            <code value="69547-8"/>
            <display value="Genomic Ref allele"/>
          </coding>
        </code>
        <valueString value="A"/>
      </component>
      <component>
        <code>
          <coding>
            <system value="http://loinc.org"/>
            <code value="69551-0"/>
            <display value="Genomic Alt allele"/>
          </coding>
        </code>
        <valueString value="G"/>
      </component>
      <component>
        <code>
          <coding>
            <system value="http://loinc.org"/>
            <code value="tbd-coordinate system"/>
            <display value="Genomic coordinate system"/>
          </coding>
        </code>
        <valueCodeableConcept>
          <coding>
            <system value="http://hl7.org/fhir/uv/genomics-reporting/CodeSystem/genetic-coordinate-system"/>
            <code value="1"/>
          </coding>
        </valueCodeableConcept>
      </component>
      <component>
        <code>
          <coding>
            <system value="http://loinc.org"/>
            <code value="81254-5"/>
            <display value="Genomic Allele start-end"/>
          </coding>
        </code>
        <valueRange>
          <low>
            <value value="18145411"/>
          </low>
        </valueRange>
      </component>
    </Observation>
  </contained>
  <contained>
    <Observation>
      <id value="dv-5c7fc15ba1a56"/>
      <meta>
        <profile value="http://hl7.org/fhir/uv/genomics-reporting/StructureDefinition/obs-described-variant"/>
      </meta>
      <status value="final"/>
      <category>
        <coding>
          <system value="http://terminology.hl7.org/CodeSystem/observation-category"/>
          <code value="laboratory"/>
        </coding>
      </category>
      <code>
        <coding>
          <system value="http://loinc.org"/>
          <code value="TBD-Described"/>
          <display value="Genetic variant assessment"/>
        </coding>
      </code>
      <subject>
        <reference value="Patient/NA19435"/>
      </subject>
      <issued value="2019-03-06T12:47:23+00:00"/>
      <valueCodeableConcept>
        <coding>
          <system value="http://loinc.org"/>
          <code value="LA9633-4"/>
          <display value="Present"/>
        </coding>
      </valueCodeableConcept>
      <component>
        <code>
          <coding>
            <system value="http://loinc.org"/>
            <code value="62374-4"/>
            <display value="Human reference sequence assembly version"/>
          </coding>
        </code>
        <valueCodeableConcept>
          <coding>
            <system value="http://loinc.org"/>
            <code value="LA14029-5"/>
            <display value="GRCh37"/>
          </coding>
        </valueCodeableConcept>
      </component>
      <component>
        <code>
          <coding>
            <system value="http://loinc.org"/>
            <code value="48013-7"/>
            <display value="Genomic reference sequence ID"/>
          </coding>
        </code>
        <valueCodeableConcept>
          <coding>
            <system value="http://www.ncbi.nlm.nih.gov/nuccore"/>
            <code value="NC_000006.11"/>
          </coding>
        </valueCodeableConcept>
      </component>
      <component>
        <code>
          <coding>
            <system value="http://loinc.org"/>
            <code value="53034-5"/>
            <display value="Allelic state"/>
          </coding>
        </code>
        <valueCodeableConcept>
          <coding>
            <system value="http://loinc.org"/>
            <code value="LA6706-1"/>
            <display value="heterozygous"/>
          </coding>
        </valueCodeableConcept>
      </component>
      <component>
        <code>
          <coding>
            <system value="http://loinc.org"/>
            <code value="69547-8"/>
            <display value="Genomic Ref allele"/>
          </coding>
        </code>
        <valueString value="G"/>
      </component>
      <component>
        <code>
          <coding>
            <system value="http://loinc.org"/>
            <code value="69551-0"/>
            <display value="Genomic Alt allele"/>
          </coding>
        </code>
        <valueString value="T"/>
      </component>
      <component>
        <code>
          <coding>
            <system value="http://loinc.org"/>
            <code value="tbd-coordinate system"/>
            <display value="Genomic coordinate system"/>
          </coding>
        </code>
        <valueCodeableConcept>
          <coding>
            <system value="http://hl7.org/fhir/uv/genomics-reporting/CodeSystem/genetic-coordinate-system"/>
            <code value="1"/>
          </coding>
        </valueCodeableConcept>
      </component>
      <component>
        <code>
          <coding>
            <system value="http://loinc.org"/>
            <code value="81254-5"/>
            <display value="Genomic Allele start-end"/>
          </coding>
        </code>
        <valueRange>
          <low>
            <value value="18146895"/>
          </low>
        </valueRange>
      </component>
    </Observation>
  </contained>
  <contained>
    <Observation>
      <id value="dv-5c7fc15ba1adb"/>
      <meta>
        <profile value="http://hl7.org/fhir/uv/genomics-reporting/StructureDefinition/obs-described-variant"/>
      </meta>
      <status value="final"/>
      <category>
        <coding>
          <system value="http://terminology.hl7.org/CodeSystem/observation-category"/>
          <code value="laboratory"/>
        </coding>
      </category>
      <code>
        <coding>
          <system value="http://loinc.org"/>
          <code value="TBD-Described"/>
          <display value="Genetic variant assessment"/>
        </coding>
      </code>
      <subject>
        <reference value="Patient/NA19435"/>
      </subject>
      <issued value="2019-03-06T12:47:23+00:00"/>
      <valueCodeableConcept>
        <coding>
          <system value="http://loinc.org"/>
          <code value="LA9633-4"/>
          <display value="Present"/>
        </coding>
      </valueCodeableConcept>
      <component>
        <code>
          <coding>
            <system value="http://loinc.org"/>
            <code value="62374-4"/>
            <display value="Human reference sequence assembly version"/>
          </coding>
        </code>
        <valueCodeableConcept>
          <coding>
            <system value="http://loinc.org"/>
            <code value="LA14029-5"/>
            <display value="GRCh37"/>
          </coding>
        </valueCodeableConcept>
      </component>
      <component>
        <code>
          <coding>
            <system value="http://loinc.org"/>
            <code value="48013-7"/>
            <display value="Genomic reference sequence ID"/>
          </coding>
        </code>
        <valueCodeableConcept>
          <coding>
            <system value="http://www.ncbi.nlm.nih.gov/nuccore"/>
            <code value="NC_000006.11"/>
          </coding>
        </valueCodeableConcept>
      </component>
      <component>
        <code>
          <coding>
            <system value="http://loinc.org"/>
            <code value="53034-5"/>
            <display value="Allelic state"/>
          </coding>
        </code>
        <valueCodeableConcept>
          <coding>
            <system value="http://loinc.org"/>
            <code value="LA6705-3"/>
            <display value="homozygous"/>
          </coding>
        </valueCodeableConcept>
      </component>
      <component>
        <code>
          <coding>
            <system value="http://loinc.org"/>
            <code value="69547-8"/>
            <display value="Genomic Ref allele"/>
          </coding>
        </code>
        <valueString value="G"/>
      </component>
      <component>
        <code>
          <coding>
            <system value="http://loinc.org"/>
            <code value="69551-0"/>
            <display value="Genomic Alt allele"/>
          </coding>
        </code>
        <valueString value="A"/>
      </component>
      <component>
        <code>
          <coding>
            <system value="http://loinc.org"/>
            <code value="tbd-coordinate system"/>
            <display value="Genomic coordinate system"/>
          </coding>
        </code>
        <valueCodeableConcept>
          <coding>
            <system value="http://hl7.org/fhir/uv/genomics-reporting/CodeSystem/genetic-coordinate-system"/>
            <code value="1"/>
          </coding>
        </valueCodeableConcept>
      </component>
      <component>
        <code>
          <coding>
            <system value="http://loinc.org"/>
            <code value="81254-5"/>
            <display value="Genomic Allele start-end"/>
          </coding>
        </code>
        <valueRange>
          <low>
            <value value="18148513"/>
          </low>
        </valueRange>
      </component>
    </Observation>
  </contained>
  <contained>
    <Observation>
      <id value="dv-5c7fc15ba1b5e"/>
      <meta>
        <profile value="http://hl7.org/fhir/uv/genomics-reporting/StructureDefinition/obs-described-variant"/>
      </meta>
      <status value="final"/>
      <category>
        <coding>
          <system value="http://terminology.hl7.org/CodeSystem/observation-category"/>
          <code value="laboratory"/>
        </coding>
      </category>
      <code>
        <coding>
          <system value="http://loinc.org"/>
          <code value="TBD-Described"/>
          <display value="Genetic variant assessment"/>
        </coding>
      </code>
      <subject>
        <reference value="Patient/NA19435"/>
      </subject>
      <issued value="2019-03-06T12:47:23+00:00"/>
      <valueCodeableConcept>
        <coding>
          <system value="http://loinc.org"/>
          <code value="LA9633-4"/>
          <display value="Present"/>
        </coding>
      </valueCodeableConcept>
      <component>
        <code>
          <coding>
            <system value="http://loinc.org"/>
            <code value="62374-4"/>
            <display value="Human reference sequence assembly version"/>
          </coding>
        </code>
        <valueCodeableConcept>
          <coding>
            <system value="http://loinc.org"/>
            <code value="LA14029-5"/>
            <display value="GRCh37"/>
          </coding>
        </valueCodeableConcept>
      </component>
      <component>
        <code>
          <coding>
            <system value="http://loinc.org"/>
            <code value="48013-7"/>
            <display value="Genomic reference sequence ID"/>
          </coding>
        </code>
        <valueCodeableConcept>
          <coding>
            <system value="http://www.ncbi.nlm.nih.gov/nuccore"/>
            <code value="NC_000006.11"/>
          </coding>
        </valueCodeableConcept>
      </component>
      <component>
        <code>
          <coding>
            <system value="http://loinc.org"/>
            <code value="53034-5"/>
            <display value="Allelic state"/>
          </coding>
        </code>
        <valueCodeableConcept>
          <coding>
            <system value="http://loinc.org"/>
            <code value="LA6706-1"/>
            <display value="heterozygous"/>
          </coding>
        </valueCodeableConcept>
      </component>
      <component>
        <code>
          <coding>
            <system value="http://loinc.org"/>
            <code value="69547-8"/>
            <display value="Genomic Ref allele"/>
          </coding>
        </code>
        <valueString value="G"/>
      </component>
      <component>
        <code>
          <coding>
            <system value="http://loinc.org"/>
            <code value="69551-0"/>
            <display value="Genomic Alt allele"/>
          </coding>
        </code>
        <valueString value="C"/>
      </component>
      <component>
        <code>
          <coding>
            <system value="http://loinc.org"/>
            <code value="tbd-coordinate system"/>
            <display value="Genomic coordinate system"/>
          </coding>
        </code>
        <valueCodeableConcept>
          <coding>
            <system value="http://hl7.org/fhir/uv/genomics-reporting/CodeSystem/genetic-coordinate-system"/>
            <code value="1"/>
          </coding>
        </valueCodeableConcept>
      </component>
      <component>
        <code>
          <coding>
            <system value="http://loinc.org"/>
            <code value="81254-5"/>
            <display value="Genomic Allele start-end"/>
          </coding>
        </code>
        <valueRange>
          <low>
            <value value="18148891"/>
          </low>
        </valueRange>
      </component>
    </Observation>
  </contained>
  <contained>
    <Observation>
      <id value="dv-5c7fc15ba1be2"/>
      <meta>
        <profile value="http://hl7.org/fhir/uv/genomics-reporting/StructureDefinition/obs-described-variant"/>
      </meta>
      <status value="final"/>
      <category>
        <coding>
          <system value="http://terminology.hl7.org/CodeSystem/observation-category"/>
          <code value="laboratory"/>
        </coding>
      </category>
      <code>
        <coding>
          <system value="http://loinc.org"/>
          <code value="TBD-Described"/>
          <display value="Genetic variant assessment"/>
        </coding>
      </code>
      <subject>
        <reference value="Patient/NA19435"/>
      </subject>
      <issued value="2019-03-06T12:47:23+00:00"/>
      <valueCodeableConcept>
        <coding>
          <system value="http://loinc.org"/>
          <code value="LA9633-4"/>
          <display value="Present"/>
        </coding>
      </valueCodeableConcept>
      <component>
        <code>
          <coding>
            <system value="http://loinc.org"/>
            <code value="62374-4"/>
            <display value="Human reference sequence assembly version"/>
          </coding>
        </code>
        <valueCodeableConcept>
          <coding>
            <system value="http://loinc.org"/>
            <code value="LA14029-5"/>
            <display value="GRCh37"/>
          </coding>
        </valueCodeableConcept>
      </component>
      <component>
        <code>
          <coding>
            <system value="http://loinc.org"/>
            <code value="48013-7"/>
            <display value="Genomic reference sequence ID"/>
          </coding>
        </code>
        <valueCodeableConcept>
          <coding>
            <system value="http://www.ncbi.nlm.nih.gov/nuccore"/>
            <code value="NC_000006.11"/>
          </coding>
        </valueCodeableConcept>
      </component>
      <component>
        <code>
          <coding>
            <system value="http://loinc.org"/>
            <code value="53034-5"/>
            <display value="Allelic state"/>
          </coding>
        </code>
        <valueCodeableConcept>
          <coding>
            <system value="http://loinc.org"/>
            <code value="LA6706-1"/>
            <display value="heterozygous"/>
          </coding>
        </valueCodeableConcept>
      </component>
      <component>
        <code>
          <coding>
            <system value="http://loinc.org"/>
            <code value="69547-8"/>
            <display value="Genomic Ref allele"/>
          </coding>
        </code>
        <valueString value="C"/>
      </component>
      <component>
        <code>
          <coding>
            <system value="http://loinc.org"/>
            <code value="69551-0"/>
            <display value="Genomic Alt allele"/>
          </coding>
        </code>
        <valueString value="T"/>
      </component>
      <component>
        <code>
          <coding>
            <system value="http://loinc.org"/>
            <code value="tbd-coordinate system"/>
            <display value="Genomic coordinate system"/>
          </coding>
        </code>
        <valueCodeableConcept>
          <coding>
            <system value="http://hl7.org/fhir/uv/genomics-reporting/CodeSystem/genetic-coordinate-system"/>
            <code value="1"/>
          </coding>
        </valueCodeableConcept>
      </component>
      <component>
        <code>
          <coding>
            <system value="http://loinc.org"/>
            <code value="81254-5"/>
            <display value="Genomic Allele start-end"/>
          </coding>
        </code>
        <valueRange>
          <low>
            <value value="18151052"/>
          </low>
        </valueRange>
      </component>
    </Observation>
  </contained>
  <contained>
    <Observation>
      <id value="dv-5c7fc15ba1c65"/>
      <meta>
        <profile value="http://hl7.org/fhir/uv/genomics-reporting/StructureDefinition/obs-described-variant"/>
      </meta>
      <status value="final"/>
      <category>
        <coding>
          <system value="http://terminology.hl7.org/CodeSystem/observation-category"/>
          <code value="laboratory"/>
        </coding>
      </category>
      <code>
        <coding>
          <system value="http://loinc.org"/>
          <code value="TBD-Described"/>
          <display value="Genetic variant assessment"/>
        </coding>
      </code>
      <subject>
        <reference value="Patient/NA19435"/>
      </subject>
      <issued value="2019-03-06T12:47:23+00:00"/>
      <valueCodeableConcept>
        <coding>
          <system value="http://loinc.org"/>
          <code value="LA9633-4"/>
          <display value="Present"/>
        </coding>
      </valueCodeableConcept>
      <component>
        <code>
          <coding>
            <system value="http://loinc.org"/>
            <code value="62374-4"/>
            <display value="Human reference sequence assembly version"/>
          </coding>
        </code>
        <valueCodeableConcept>
          <coding>
            <system value="http://loinc.org"/>
            <code value="LA14029-5"/>
            <display value="GRCh37"/>
          </coding>
        </valueCodeableConcept>
      </component>
      <component>
        <code>
          <coding>
            <system value="http://loinc.org"/>
            <code value="48013-7"/>
            <display value="Genomic reference sequence ID"/>
          </coding>
        </code>
        <valueCodeableConcept>
          <coding>
            <system value="http://www.ncbi.nlm.nih.gov/nuccore"/>
            <code value="NC_000006.11"/>
          </coding>
        </valueCodeableConcept>
      </component>
      <component>
        <code>
          <coding>
            <system value="http://loinc.org"/>
            <code value="53034-5"/>
            <display value="Allelic state"/>
          </coding>
        </code>
        <valueCodeableConcept>
          <coding>
            <system value="http://loinc.org"/>
            <code value="LA6706-1"/>
            <display value="heterozygous"/>
          </coding>
        </valueCodeableConcept>
      </component>
      <component>
        <code>
          <coding>
            <system value="http://loinc.org"/>
            <code value="69547-8"/>
            <display value="Genomic Ref allele"/>
          </coding>
        </code>
        <valueString value="T"/>
      </component>
      <component>
        <code>
          <coding>
            <system value="http://loinc.org"/>
            <code value="69551-0"/>
            <display value="Genomic Alt allele"/>
          </coding>
        </code>
        <valueString value="G"/>
      </component>
      <component>
        <code>
          <coding>
            <system value="http://loinc.org"/>
            <code value="tbd-coordinate system"/>
            <display value="Genomic coordinate system"/>
          </coding>
        </code>
        <valueCodeableConcept>
          <coding>
            <system value="http://hl7.org/fhir/uv/genomics-reporting/CodeSystem/genetic-coordinate-system"/>
            <code value="1"/>
          </coding>
        </valueCodeableConcept>
      </component>
      <component>
        <code>
          <coding>
            <system value="http://loinc.org"/>
            <code value="81254-5"/>
            <display value="Genomic Allele start-end"/>
          </coding>
        </code>
        <valueRange>
          <low>
            <value value="18151816"/>
          </low>
        </valueRange>
      </component>
    </Observation>
  </contained>
  <contained>
    <Observation>
      <id value="dv-5c7fc15ba1ce8"/>
      <meta>
        <profile value="http://hl7.org/fhir/uv/genomics-reporting/StructureDefinition/obs-described-variant"/>
      </meta>
      <status value="final"/>
      <category>
        <coding>
          <system value="http://terminology.hl7.org/CodeSystem/observation-category"/>
          <code value="laboratory"/>
        </coding>
      </category>
      <code>
        <coding>
          <system value="http://loinc.org"/>
          <code value="TBD-Described"/>
          <display value="Genetic variant assessment"/>
        </coding>
      </code>
      <subject>
        <reference value="Patient/NA19435"/>
      </subject>
      <issued value="2019-03-06T12:47:23+00:00"/>
      <valueCodeableConcept>
        <coding>
          <system value="http://loinc.org"/>
          <code value="LA9633-4"/>
          <display value="Present"/>
        </coding>
      </valueCodeableConcept>
      <component>
        <code>
          <coding>
            <system value="http://loinc.org"/>
            <code value="62374-4"/>
            <display value="Human reference sequence assembly version"/>
          </coding>
        </code>
        <valueCodeableConcept>
          <coding>
            <system value="http://loinc.org"/>
            <code value="LA14029-5"/>
            <display value="GRCh37"/>
          </coding>
        </valueCodeableConcept>
      </component>
      <component>
        <code>
          <coding>
            <system value="http://loinc.org"/>
            <code value="48013-7"/>
            <display value="Genomic reference sequence ID"/>
          </coding>
        </code>
        <valueCodeableConcept>
          <coding>
            <system value="http://www.ncbi.nlm.nih.gov/nuccore"/>
            <code value="NC_000006.11"/>
          </coding>
        </valueCodeableConcept>
      </component>
      <component>
        <code>
          <coding>
            <system value="http://loinc.org"/>
            <code value="53034-5"/>
            <display value="Allelic state"/>
          </coding>
        </code>
        <valueCodeableConcept>
          <coding>
            <system value="http://loinc.org"/>
            <code value="LA6706-1"/>
            <display value="heterozygous"/>
          </coding>
        </valueCodeableConcept>
      </component>
      <component>
        <code>
          <coding>
            <system value="http://loinc.org"/>
            <code value="69547-8"/>
            <display value="Genomic Ref allele"/>
          </coding>
        </code>
        <valueString value="T"/>
      </component>
      <component>
        <code>
          <coding>
            <system value="http://loinc.org"/>
            <code value="69551-0"/>
            <display value="Genomic Alt allele"/>
          </coding>
        </code>
        <valueString value="G"/>
      </component>
      <component>
        <code>
          <coding>
            <system value="http://loinc.org"/>
            <code value="tbd-coordinate system"/>
            <display value="Genomic coordinate system"/>
          </coding>
        </code>
        <valueCodeableConcept>
          <coding>
            <system value="http://hl7.org/fhir/uv/genomics-reporting/CodeSystem/genetic-coordinate-system"/>
            <code value="1"/>
          </coding>
        </valueCodeableConcept>
      </component>
      <component>
        <code>
          <coding>
            <system value="http://loinc.org"/>
            <code value="81254-5"/>
            <display value="Genomic Allele start-end"/>
          </coding>
        </code>
        <valueRange>
          <low>
            <value value="18151820"/>
          </low>
        </valueRange>
      </component>
    </Observation>
  </contained>
  <contained>
    <Observation>
      <id value="dv-5c7fc15ba1d6c"/>
      <meta>
        <profile value="http://hl7.org/fhir/uv/genomics-reporting/StructureDefinition/obs-described-variant"/>
      </meta>
      <status value="final"/>
      <category>
        <coding>
          <system value="http://terminology.hl7.org/CodeSystem/observation-category"/>
          <code value="laboratory"/>
        </coding>
      </category>
      <code>
        <coding>
          <system value="http://loinc.org"/>
          <code value="TBD-Described"/>
          <display value="Genetic variant assessment"/>
        </coding>
      </code>
      <subject>
        <reference value="Patient/NA19435"/>
      </subject>
      <issued value="2019-03-06T12:47:23+00:00"/>
      <valueCodeableConcept>
        <coding>
          <system value="http://loinc.org"/>
          <code value="LA9633-4"/>
          <display value="Present"/>
        </coding>
      </valueCodeableConcept>
      <component>
        <code>
          <coding>
            <system value="http://loinc.org"/>
            <code value="62374-4"/>
            <display value="Human reference sequence assembly version"/>
          </coding>
        </code>
        <valueCodeableConcept>
          <coding>
            <system value="http://loinc.org"/>
            <code value="LA14029-5"/>
            <display value="GRCh37"/>
          </coding>
        </valueCodeableConcept>
      </component>
      <component>
        <code>
          <coding>
            <system value="http://loinc.org"/>
            <code value="48013-7"/>
            <display value="Genomic reference sequence ID"/>
          </coding>
        </code>
        <valueCodeableConcept>
          <coding>
            <system value="http://www.ncbi.nlm.nih.gov/nuccore"/>
            <code value="NC_000006.11"/>
          </coding>
        </valueCodeableConcept>
      </component>
      <component>
        <code>
          <coding>
            <system value="http://loinc.org"/>
            <code value="53034-5"/>
            <display value="Allelic state"/>
          </coding>
        </code>
        <valueCodeableConcept>
          <coding>
            <system value="http://loinc.org"/>
            <code value="LA6705-3"/>
            <display value="homozygous"/>
          </coding>
        </valueCodeableConcept>
      </component>
      <component>
        <code>
          <coding>
            <system value="http://loinc.org"/>
            <code value="69547-8"/>
            <display value="Genomic Ref allele"/>
          </coding>
        </code>
        <valueString value="A"/>
      </component>
      <component>
        <code>
          <coding>
            <system value="http://loinc.org"/>
            <code value="69551-0"/>
            <display value="Genomic Alt allele"/>
          </coding>
        </code>
        <valueString value="G"/>
      </component>
      <component>
        <code>
          <coding>
            <system value="http://loinc.org"/>
            <code value="tbd-coordinate system"/>
            <display value="Genomic coordinate system"/>
          </coding>
        </code>
        <valueCodeableConcept>
          <coding>
            <system value="http://hl7.org/fhir/uv/genomics-reporting/CodeSystem/genetic-coordinate-system"/>
            <code value="1"/>
          </coding>
        </valueCodeableConcept>
      </component>
      <component>
        <code>
          <coding>
            <system value="http://loinc.org"/>
            <code value="81254-5"/>
            <display value="Genomic Allele start-end"/>
          </coding>
        </code>
        <valueRange>
          <low>
            <value value="18153029"/>
          </low>
        </valueRange>
      </component>
    </Observation>
  </contained>
  <contained>
    <Observation>
      <id value="dv-5c7fc15ba1def"/>
      <meta>
        <profile value="http://hl7.org/fhir/uv/genomics-reporting/StructureDefinition/obs-described-variant"/>
      </meta>
      <status value="final"/>
      <category>
        <coding>
          <system value="http://terminology.hl7.org/CodeSystem/observation-category"/>
          <code value="laboratory"/>
        </coding>
      </category>
      <code>
        <coding>
          <system value="http://loinc.org"/>
          <code value="TBD-Described"/>
          <display value="Genetic variant assessment"/>
        </coding>
      </code>
      <subject>
        <reference value="Patient/NA19435"/>
      </subject>
      <issued value="2019-03-06T12:47:23+00:00"/>
      <valueCodeableConcept>
        <coding>
          <system value="http://loinc.org"/>
          <code value="LA9633-4"/>
          <display value="Present"/>
        </coding>
      </valueCodeableConcept>
      <component>
        <code>
          <coding>
            <system value="http://loinc.org"/>
            <code value="62374-4"/>
            <display value="Human reference sequence assembly version"/>
          </coding>
        </code>
        <valueCodeableConcept>
          <coding>
            <system value="http://loinc.org"/>
            <code value="LA14029-5"/>
            <display value="GRCh37"/>
          </coding>
        </valueCodeableConcept>
      </component>
      <component>
        <code>
          <coding>
            <system value="http://loinc.org"/>
            <code value="48013-7"/>
            <display value="Genomic reference sequence ID"/>
          </coding>
        </code>
        <valueCodeableConcept>
          <coding>
            <system value="http://www.ncbi.nlm.nih.gov/nuccore"/>
            <code value="NC_000006.11"/>
          </coding>
        </valueCodeableConcept>
      </component>
      <component>
        <code>
          <coding>
            <system value="http://loinc.org"/>
            <code value="53034-5"/>
            <display value="Allelic state"/>
          </coding>
        </code>
        <valueCodeableConcept>
          <coding>
            <system value="http://loinc.org"/>
            <code value="LA6706-1"/>
            <display value="heterozygous"/>
          </coding>
        </valueCodeableConcept>
      </component>
      <component>
        <code>
          <coding>
            <system value="http://loinc.org"/>
            <code value="69547-8"/>
            <display value="Genomic Ref allele"/>
          </coding>
        </code>
        <valueString value="T"/>
      </component>
      <component>
        <code>
          <coding>
            <system value="http://loinc.org"/>
            <code value="69551-0"/>
            <display value="Genomic Alt allele"/>
          </coding>
        </code>
        <valueString value="C"/>
      </component>
      <component>
        <code>
          <coding>
            <system value="http://loinc.org"/>
            <code value="tbd-coordinate system"/>
            <display value="Genomic coordinate system"/>
          </coding>
        </code>
        <valueCodeableConcept>
          <coding>
            <system value="http://hl7.org/fhir/uv/genomics-reporting/CodeSystem/genetic-coordinate-system"/>
            <code value="1"/>
          </coding>
        </valueCodeableConcept>
      </component>
      <component>
        <code>
          <coding>
            <system value="http://loinc.org"/>
            <code value="81254-5"/>
            <display value="Genomic Allele start-end"/>
          </coding>
        </code>
        <valueRange>
          <low>
            <value value="18153373"/>
          </low>
        </valueRange>
      </component>
    </Observation>
  </contained>
  <contained>
    <Observation>
      <id value="dv-5c7fc15ba1e73"/>
      <meta>
        <profile value="http://hl7.org/fhir/uv/genomics-reporting/StructureDefinition/obs-described-variant"/>
      </meta>
      <status value="final"/>
      <category>
        <coding>
          <system value="http://terminology.hl7.org/CodeSystem/observation-category"/>
          <code value="laboratory"/>
        </coding>
      </category>
      <code>
        <coding>
          <system value="http://loinc.org"/>
          <code value="TBD-Described"/>
          <display value="Genetic variant assessment"/>
        </coding>
      </code>
      <subject>
        <reference value="Patient/NA19435"/>
      </subject>
      <issued value="2019-03-06T12:47:23+00:00"/>
      <valueCodeableConcept>
        <coding>
          <system value="http://loinc.org"/>
          <code value="LA9633-4"/>
          <display value="Present"/>
        </coding>
      </valueCodeableConcept>
      <component>
        <code>
          <coding>
            <system value="http://loinc.org"/>
            <code value="62374-4"/>
            <display value="Human reference sequence assembly version"/>
          </coding>
        </code>
        <valueCodeableConcept>
          <coding>
            <system value="http://loinc.org"/>
            <code value="LA14029-5"/>
            <display value="GRCh37"/>
          </coding>
        </valueCodeableConcept>
      </component>
      <component>
        <code>
          <coding>
            <system value="http://loinc.org"/>
            <code value="48013-7"/>
            <display value="Genomic reference sequence ID"/>
          </coding>
        </code>
        <valueCodeableConcept>
          <coding>
            <system value="http://www.ncbi.nlm.nih.gov/nuccore"/>
            <code value="NC_000006.11"/>
          </coding>
        </valueCodeableConcept>
      </component>
      <component>
        <code>
          <coding>
            <system value="http://loinc.org"/>
            <code value="53034-5"/>
            <display value="Allelic state"/>
          </coding>
        </code>
        <valueCodeableConcept>
          <coding>
            <system value="http://loinc.org"/>
            <code value="LA6706-1"/>
            <display value="heterozygous"/>
          </coding>
        </valueCodeableConcept>
      </component>
      <component>
        <code>
          <coding>
            <system value="http://loinc.org"/>
            <code value="69547-8"/>
            <display value="Genomic Ref allele"/>
          </coding>
        </code>
        <valueString value="CATT"/>
      </component>
      <component>
        <code>
          <coding>
            <system value="http://loinc.org"/>
            <code value="69551-0"/>
            <display value="Genomic Alt allele"/>
          </coding>
        </code>
        <valueString value="C"/>
      </component>
      <component>
        <code>
          <coding>
            <system value="http://loinc.org"/>
            <code value="tbd-coordinate system"/>
            <display value="Genomic coordinate system"/>
          </coding>
        </code>
        <valueCodeableConcept>
          <coding>
            <system value="http://hl7.org/fhir/uv/genomics-reporting/CodeSystem/genetic-coordinate-system"/>
            <code value="1"/>
          </coding>
        </valueCodeableConcept>
      </component>
      <component>
        <code>
          <coding>
            <system value="http://loinc.org"/>
            <code value="81254-5"/>
            <display value="Genomic Allele start-end"/>
          </coding>
        </code>
        <valueRange>
          <low>
            <value value="18153512"/>
          </low>
        </valueRange>
      </component>
    </Observation>
  </contained>
  <contained>
    <Observation>
      <id value="dv-5c7fc15ba1ef6"/>
      <meta>
        <profile value="http://hl7.org/fhir/uv/genomics-reporting/StructureDefinition/obs-described-variant"/>
      </meta>
      <status value="final"/>
      <category>
        <coding>
          <system value="http://terminology.hl7.org/CodeSystem/observation-category"/>
          <code value="laboratory"/>
        </coding>
      </category>
      <code>
        <coding>
          <system value="http://loinc.org"/>
          <code value="TBD-Described"/>
          <display value="Genetic variant assessment"/>
        </coding>
      </code>
      <subject>
        <reference value="Patient/NA19435"/>
      </subject>
      <issued value="2019-03-06T12:47:23+00:00"/>
      <valueCodeableConcept>
        <coding>
          <system value="http://loinc.org"/>
          <code value="LA9633-4"/>
          <display value="Present"/>
        </coding>
      </valueCodeableConcept>
      <component>
        <code>
          <coding>
            <system value="http://loinc.org"/>
            <code value="62374-4"/>
            <display value="Human reference sequence assembly version"/>
          </coding>
        </code>
        <valueCodeableConcept>
          <coding>
            <system value="http://loinc.org"/>
            <code value="LA14029-5"/>
            <display value="GRCh37"/>
          </coding>
        </valueCodeableConcept>
      </component>
      <component>
        <code>
          <coding>
            <system value="http://loinc.org"/>
            <code value="48013-7"/>
            <display value="Genomic reference sequence ID"/>
          </coding>
        </code>
        <valueCodeableConcept>
          <coding>
            <system value="http://www.ncbi.nlm.nih.gov/nuccore"/>
            <code value="NC_000006.11"/>
          </coding>
        </valueCodeableConcept>
      </component>
      <component>
        <code>
          <coding>
            <system value="http://loinc.org"/>
            <code value="53034-5"/>
            <display value="Allelic state"/>
          </coding>
        </code>
        <valueCodeableConcept>
          <coding>
            <system value="http://loinc.org"/>
            <code value="LA6706-1"/>
            <display value="heterozygous"/>
          </coding>
        </valueCodeableConcept>
      </component>
      <component>
        <code>
          <coding>
            <system value="http://loinc.org"/>
            <code value="69547-8"/>
            <display value="Genomic Ref allele"/>
          </coding>
        </code>
        <valueString value="T"/>
      </component>
      <component>
        <code>
          <coding>
            <system value="http://loinc.org"/>
            <code value="69551-0"/>
            <display value="Genomic Alt allele"/>
          </coding>
        </code>
        <valueString value="C"/>
      </component>
      <component>
        <code>
          <coding>
            <system value="http://loinc.org"/>
            <code value="tbd-coordinate system"/>
            <display value="Genomic coordinate system"/>
          </coding>
        </code>
        <valueCodeableConcept>
          <coding>
            <system value="http://hl7.org/fhir/uv/genomics-reporting/CodeSystem/genetic-coordinate-system"/>
            <code value="1"/>
          </coding>
        </valueCodeableConcept>
      </component>
      <component>
        <code>
          <coding>
            <system value="http://loinc.org"/>
            <code value="81254-5"/>
            <display value="Genomic Allele start-end"/>
          </coding>
        </code>
        <valueRange>
          <low>
            <value value="18154438"/>
          </low>
        </valueRange>
      </component>
    </Observation>
  </contained>
  <contained>
    <Observation>
      <id value="dv-5c7fc15ba1f7a"/>
      <meta>
        <profile value="http://hl7.org/fhir/uv/genomics-reporting/StructureDefinition/obs-described-variant"/>
      </meta>
      <status value="final"/>
      <category>
        <coding>
          <system value="http://terminology.hl7.org/CodeSystem/observation-category"/>
          <code value="laboratory"/>
        </coding>
      </category>
      <code>
        <coding>
          <system value="http://loinc.org"/>
          <code value="TBD-Described"/>
          <display value="Genetic variant assessment"/>
        </coding>
      </code>
      <subject>
        <reference value="Patient/NA19435"/>
      </subject>
      <issued value="2019-03-06T12:47:23+00:00"/>
      <valueCodeableConcept>
        <coding>
          <system value="http://loinc.org"/>
          <code value="LA9633-4"/>
          <display value="Present"/>
        </coding>
      </valueCodeableConcept>
      <component>
        <code>
          <coding>
            <system value="http://loinc.org"/>
            <code value="62374-4"/>
            <display value="Human reference sequence assembly version"/>
          </coding>
        </code>
        <valueCodeableConcept>
          <coding>
            <system value="http://loinc.org"/>
            <code value="LA14029-5"/>
            <display value="GRCh37"/>
          </coding>
        </valueCodeableConcept>
      </component>
      <component>
        <code>
          <coding>
            <system value="http://loinc.org"/>
            <code value="48013-7"/>
            <display value="Genomic reference sequence ID"/>
          </coding>
        </code>
        <valueCodeableConcept>
          <coding>
            <system value="http://www.ncbi.nlm.nih.gov/nuccore"/>
            <code value="NC_000006.11"/>
          </coding>
        </valueCodeableConcept>
      </component>
      <component>
        <code>
          <coding>
            <system value="http://loinc.org"/>
            <code value="53034-5"/>
            <display value="Allelic state"/>
          </coding>
        </code>
        <valueCodeableConcept>
          <coding>
            <system value="http://loinc.org"/>
            <code value="LA6706-1"/>
            <display value="heterozygous"/>
          </coding>
        </valueCodeableConcept>
      </component>
      <component>
        <code>
          <coding>
            <system value="http://loinc.org"/>
            <code value="69547-8"/>
            <display value="Genomic Ref allele"/>
          </coding>
        </code>
        <valueString value="T"/>
      </component>
      <component>
        <code>
          <coding>
            <system value="http://loinc.org"/>
            <code value="69551-0"/>
            <display value="Genomic Alt allele"/>
          </coding>
        </code>
        <valueString value="G"/>
      </component>
      <component>
        <code>
          <coding>
            <system value="http://loinc.org"/>
            <code value="tbd-coordinate system"/>
            <display value="Genomic coordinate system"/>
          </coding>
        </code>
        <valueCodeableConcept>
          <coding>
            <system value="http://hl7.org/fhir/uv/genomics-reporting/CodeSystem/genetic-coordinate-system"/>
            <code value="1"/>
          </coding>
        </valueCodeableConcept>
      </component>
      <component>
        <code>
          <coding>
            <system value="http://loinc.org"/>
            <code value="81254-5"/>
            <display value="Genomic Allele start-end"/>
          </coding>
        </code>
        <valueRange>
          <low>
            <value value="18155030"/>
          </low>
        </valueRange>
      </component>
    </Observation>
  </contained>
  <contained>
    <Observation>
      <id value="sid-5c7fc15ba1ffd"/>
      <meta>
        <profile value="http://hl7.org/fhir/uv/genomics-reporting/StructureDefinition/obs-sequence-phase-reltn"/>
      </meta>
      <extension url="http://hl7.org/fhir/uv/genomics-reporting/StructureDefinition/obs-focus">
        <valueReference>
          <reference value="#dv-5c7fc15ba0587"/>
        </valueReference>
      </extension>
      <extension url="http://hl7.org/fhir/uv/genomics-reporting/StructureDefinition/obs-focus">
        <valueReference>
          <reference value="#dv-5c7fc15ba06a0"/>
        </valueReference>
      </extension>
      <status value="final"/>
      <category>
        <coding>
          <system value="http://terminology.hl7.org/CodeSystem/observation-category"/>
          <code value="laboratory"/>
        </coding>
      </category>
      <code>
        <coding>
          <system value="http://loinc.org"/>
          <code value="TBD-sequence-phase-relation"/>
          <display value="Sequence phase relationship"/>
        </coding>
      </code>
      <subject>
        <reference value="Patient/NA19435"/>
      </subject>
      <issued value="2019-03-06T12:47:23+00:00"/>
      <valueCodeableConcept>
        <coding>
          <system value="http://loinc.org"/>
          <code value="TBD-cisTrans"/>
          <display value="Cis"/>
        </coding>
      </valueCodeableConcept>
    </Observation>
  </contained>
  <contained>
    <Observation>
      <id value="sid-5c7fc15ba2033"/>
      <meta>
        <profile value="http://hl7.org/fhir/uv/genomics-reporting/StructureDefinition/obs-sequence-phase-reltn"/>
      </meta>
      <extension url="http://hl7.org/fhir/uv/genomics-reporting/StructureDefinition/obs-focus">
        <valueReference>
          <reference value="#dv-5c7fc15ba0b7c"/>
        </valueReference>
      </extension>
      <extension url="http://hl7.org/fhir/uv/genomics-reporting/StructureDefinition/obs-focus">
        <valueReference>
          <reference value="#dv-5c7fc15ba0c07"/>
        </valueReference>
      </extension>
      <status value="final"/>
      <category>
        <coding>
          <system value="http://terminology.hl7.org/CodeSystem/observation-category"/>
          <code value="laboratory"/>
        </coding>
      </category>
      <code>
        <coding>
          <system value="http://loinc.org"/>
          <code value="TBD-sequence-phase-relation"/>
          <display value="Sequence phase relationship"/>
        </coding>
      </code>
      <subject>
        <reference value="Patient/NA19435"/>
      </subject>
      <issued value="2019-03-06T12:47:23+00:00"/>
      <valueCodeableConcept>
        <coding>
          <system value="http://loinc.org"/>
          <code value="TBD-cisTrans"/>
          <display value="Trans"/>
        </coding>
      </valueCodeableConcept>
    </Observation>
  </contained>
  <contained>
    <Observation>
      <id value="sid-5c7fc15ba2068"/>
      <meta>
        <profile value="http://hl7.org/fhir/uv/genomics-reporting/StructureDefinition/obs-sequence-phase-reltn"/>
      </meta>
      <extension url="http://hl7.org/fhir/uv/genomics-reporting/StructureDefinition/obs-focus">
        <valueReference>
          <reference value="#dv-5c7fc15ba0fcd"/>
        </valueReference>
      </extension>
      <extension url="http://hl7.org/fhir/uv/genomics-reporting/StructureDefinition/obs-focus">
        <valueReference>
          <reference value="#dv-5c7fc15ba116b"/>
        </valueReference>
      </extension>
      <status value="final"/>
      <category>
        <coding>
          <system value="http://terminology.hl7.org/CodeSystem/observation-category"/>
          <code value="laboratory"/>
        </coding>
      </category>
      <code>
        <coding>
          <system value="http://loinc.org"/>
          <code value="TBD-sequence-phase-relation"/>
          <display value="Sequence phase relationship"/>
        </coding>
      </code>
      <subject>
        <reference value="Patient/NA19435"/>
      </subject>
      <issued value="2019-03-06T12:47:23+00:00"/>
      <valueCodeableConcept>
        <coding>
          <system value="http://loinc.org"/>
          <code value="TBD-cisTrans"/>
          <display value="Cis"/>
        </coding>
      </valueCodeableConcept>
    </Observation>
  </contained>
  <contained>
    <Observation>
      <id value="sid-5c7fc15ba209e"/>
      <meta>
        <profile value="http://hl7.org/fhir/uv/genomics-reporting/StructureDefinition/obs-sequence-phase-reltn"/>
      </meta>
      <extension url="http://hl7.org/fhir/uv/genomics-reporting/StructureDefinition/obs-focus">
        <valueReference>
          <reference value="#dv-5c7fc15ba1639"/>
        </valueReference>
      </extension>
      <extension url="http://hl7.org/fhir/uv/genomics-reporting/StructureDefinition/obs-focus">
        <valueReference>
          <reference value="#dv-5c7fc15ba16bd"/>
        </valueReference>
      </extension>
      <status value="final"/>
      <category>
        <coding>
          <system value="http://terminology.hl7.org/CodeSystem/observation-category"/>
          <code value="laboratory"/>
        </coding>
      </category>
      <code>
        <coding>
          <system value="http://loinc.org"/>
          <code value="TBD-sequence-phase-relation"/>
          <display value="Sequence phase relationship"/>
        </coding>
      </code>
      <subject>
        <reference value="Patient/NA19435"/>
      </subject>
      <issued value="2019-03-06T12:47:23+00:00"/>
      <valueCodeableConcept>
        <coding>
          <system value="http://loinc.org"/>
          <code value="TBD-cisTrans"/>
          <display value="Trans"/>
        </coding>
      </valueCodeableConcept>
    </Observation>
  </contained>
  <contained>
    <Observation>
      <id value="sid-5c7fc15ba20d3"/>
      <meta>
        <profile value="http://hl7.org/fhir/uv/genomics-reporting/StructureDefinition/obs-sequence-phase-reltn"/>
      </meta>
      <extension url="http://hl7.org/fhir/uv/genomics-reporting/StructureDefinition/obs-focus">
        <valueReference>
          <reference value="#dv-5c7fc15ba16bd"/>
        </valueReference>
      </extension>
      <extension url="http://hl7.org/fhir/uv/genomics-reporting/StructureDefinition/obs-focus">
        <valueReference>
          <reference value="#dv-5c7fc15ba1741"/>
        </valueReference>
      </extension>
      <status value="final"/>
      <category>
        <coding>
          <system value="http://terminology.hl7.org/CodeSystem/observation-category"/>
          <code value="laboratory"/>
        </coding>
      </category>
      <code>
        <coding>
          <system value="http://loinc.org"/>
          <code value="TBD-sequence-phase-relation"/>
          <display value="Sequence phase relationship"/>
        </coding>
      </code>
      <subject>
        <reference value="Patient/NA19435"/>
      </subject>
      <issued value="2019-03-06T12:47:23+00:00"/>
      <valueCodeableConcept>
        <coding>
          <system value="http://loinc.org"/>
          <code value="TBD-cisTrans"/>
          <display value="Cis"/>
        </coding>
      </valueCodeableConcept>
    </Observation>
  </contained>
  <contained>
    <Observation>
      <id value="sid-5c7fc15ba2108"/>
      <meta>
        <profile value="http://hl7.org/fhir/uv/genomics-reporting/StructureDefinition/obs-sequence-phase-reltn"/>
      </meta>
      <extension url="http://hl7.org/fhir/uv/genomics-reporting/StructureDefinition/obs-focus">
        <valueReference>
          <reference value="#dv-5c7fc15ba1c65"/>
        </valueReference>
      </extension>
      <extension url="http://hl7.org/fhir/uv/genomics-reporting/StructureDefinition/obs-focus">
        <valueReference>
          <reference value="#dv-5c7fc15ba1ce8"/>
        </valueReference>
      </extension>
      <status value="final"/>
      <category>
        <coding>
          <system value="http://terminology.hl7.org/CodeSystem/observation-category"/>
          <code value="laboratory"/>
        </coding>
      </category>
      <code>
        <coding>
          <system value="http://loinc.org"/>
          <code value="TBD-sequence-phase-relation"/>
          <display value="Sequence phase relationship"/>
        </coding>
      </code>
      <subject>
        <reference value="Patient/NA19435"/>
      </subject>
      <issued value="2019-03-06T12:47:23+00:00"/>
      <valueCodeableConcept>
        <coding>
          <system value="http://loinc.org"/>
          <code value="TBD-cisTrans"/>
          <display value="Cis"/>
        </coding>
      </valueCodeableConcept>
    </Observation>
  </contained>
  <status value="final"/>
  <code>
    <coding>
      <system value="http://loinc.org"/>
      <code value="51969-4"/>
    </coding>
    <text value="Genetic analysis report"/>
  </code>
  <subject>
    <reference value="Patient/NA19435"/>
  </subject>
  <result>
    <reference value="#rs-5c7fc15ba043e"/>
  </result>
  <result>
    <reference value="#dv-5c7fc15ba04e6"/>
  </result>
  <result>
    <reference value="#dv-5c7fc15ba0587"/>
  </result>
  <result>
    <reference value="#dv-5c7fc15ba0615"/>
  </result>
  <result>
    <reference value="#dv-5c7fc15ba06a0"/>
  </result>
  <result>
    <reference value="#dv-5c7fc15ba072b"/>
  </result>
  <result>
    <reference value="#dv-5c7fc15ba07b5"/>
  </result>
  <result>
    <reference value="#dv-5c7fc15ba083f"/>
  </result>
  <result>
    <reference value="#dv-5c7fc15ba08c9"/>
  </result>
  <result>
    <reference value="#dv-5c7fc15ba0953"/>
  </result>
  <result>
    <reference value="#dv-5c7fc15ba09dd"/>
  </result>
  <result>
    <reference value="#dv-5c7fc15ba0a68"/>
  </result>
  <result>
    <reference value="#dv-5c7fc15ba0af2"/>
  </result>
  <result>
    <reference value="#dv-5c7fc15ba0b7c"/>
  </result>
  <result>
    <reference value="#dv-5c7fc15ba0c07"/>
  </result>
  <result>
    <reference value="#dv-5c7fc15ba0c91"/>
  </result>
  <result>
    <reference value="#dv-5c7fc15ba0d1b"/>
  </result>
  <result>
    <reference value="#dv-5c7fc15ba0da5"/>
  </result>
  <result>
    <reference value="#dv-5c7fc15ba0e2e"/>
  </result>
  <result>
    <reference value="#dv-5c7fc15ba0eb8"/>
  </result>
  <result>
    <reference value="#dv-5c7fc15ba0f42"/>
  </result>
  <result>
    <reference value="#dv-5c7fc15ba0fcd"/>
  </result>
  <result>
    <reference value="#dv-5c7fc15ba1057"/>
  </result>
  <result>
    <reference value="#dv-5c7fc15ba10e1"/>
  </result>
  <result>
    <reference value="#dv-5c7fc15ba116b"/>
  </result>
  <result>
    <reference value="#dv-5c7fc15ba11f4"/>
  </result>
  <result>
    <reference value="#dv-5c7fc15ba1292"/>
  </result>
  <result>
    <reference value="#dv-5c7fc15ba1324"/>
  </result>
  <result>
    <reference value="#dv-5c7fc15ba13a8"/>
  </result>
  <result>
    <reference value="#dv-5c7fc15ba142b"/>
  </result>
  <result>
    <reference value="#dv-5c7fc15ba14af"/>
  </result>
  <result>
    <reference value="#dv-5c7fc15ba1532"/>
  </result>
  <result>
    <reference value="#dv-5c7fc15ba15b5"/>
  </result>
  <result>
    <reference value="#dv-5c7fc15ba1639"/>
  </result>
  <result>
    <reference value="#dv-5c7fc15ba16bd"/>
  </result>
  <result>
    <reference value="#dv-5c7fc15ba1741"/>
  </result>
  <result>
    <reference value="#dv-5c7fc15ba17c4"/>
  </result>
  <result>
    <reference value="#dv-5c7fc15ba1848"/>
  </result>
  <result>
    <reference value="#dv-5c7fc15ba18cb"/>
  </result>
  <result>
    <reference value="#dv-5c7fc15ba1950"/>
  </result>
  <result>
    <reference value="#dv-5c7fc15ba19d3"/>
  </result>
  <result>
    <reference value="#dv-5c7fc15ba1a56"/>
  </result>
  <result>
    <reference value="#dv-5c7fc15ba1adb"/>
  </result>
  <result>
    <reference value="#dv-5c7fc15ba1b5e"/>
  </result>
  <result>
    <reference value="#dv-5c7fc15ba1be2"/>
  </result>
  <result>
    <reference value="#dv-5c7fc15ba1c65"/>
  </result>
  <result>
    <reference value="#dv-5c7fc15ba1ce8"/>
  </result>
  <result>
    <reference value="#dv-5c7fc15ba1d6c"/>
  </result>
  <result>
    <reference value="#dv-5c7fc15ba1def"/>
  </result>
  <result>
    <reference value="#dv-5c7fc15ba1e73"/>
  </result>
  <result>
    <reference value="#dv-5c7fc15ba1ef6"/>
  </result>
  <result>
    <reference value="#dv-5c7fc15ba1f7a"/>
  </result>
  <result>
    <reference value="#sid-5c7fc15ba1ffd"/>
  </result>
  <result>
    <reference value="#sid-5c7fc15ba2033"/>
  </result>
  <result>
    <reference value="#sid-5c7fc15ba2068"/>
  </result>
  <result>
    <reference value="#sid-5c7fc15ba209e"/>
  </result>
  <result>
    <reference value="#sid-5c7fc15ba20d3"/>
  </result>
  <result>
    <reference value="#sid-5c7fc15ba2108"/>
  </result>
</DiagnosticReport>